sep=;
ACCELEROMETER X (m/s²);ACCELEROMETER Y (m/s²);ACCELEROMETER Z (m/s²);GRAVITY X (m/s²);GRAVITY Y (m/s²);GRAVITY Z (m/s²);LINEAR ACCELERATION X (m/s²);LINEAR ACCELERATION Y (m/s²);LINEAR ACCELERATION Z (m/s²);GYROSCOPE X (rad/s);GYROSCOPE Y (rad/s);GYROSCOPE Z (rad/s);LIGHT (lux);MAGNETIC FIELD X (μT);MAGNETIC FIELD Y (μT);MAGNETIC FIELD Z (μT);ORIENTATION Z (azimuth °);ORIENTATION X (pitch °);ORIENTATION Y (roll °);PROXIMITY (i);SOUND LEVEL (dB);LOCATION Latitude : ;LOCATION Longitude : ;LOCATION Altitude ( m);LOCATION Altitude-google ( m);LOCATION Speed ( Mph);LOCATION Accuracy ( m);LOCATION ORIENTATION (°);Satellites in range;Time since start in ms ;YYYY-MO-DD HH-MI-SS_SSS
0.0;3.0;9.0;0.0;3.0;9.0;0.0;0.0;0.0;0.0;0.0;0.0;39.0;-12.0;10.0;-42.0;30.0;-20.0;2.0;5.0;24.0;42.49;-83.42;0.0;863.33878215217;0.0;56.52;;0 / 2;8;2018-07-25 07:32:01:602
-1.0;4.0;9.0;-1.0;3.0;9.0;0.0;0.0;0.0;0.0;0.0;0.0;39.0;-10.0;11.0;-42.0;30.0;-20.0;4.0;5.0;22.0;42.49;-83.42;0.0;863.33878215217;0.0;56.52;;0 / 2;508;2018-07-25 07:32:02:102
-1.0;4.0;9.0;-1.0;4.0;9.0;0.0;0.0;0.0;0.0;0.0;0.0;38.0;-1.0;14.0;-42.0;14.0;-21.0;8.0;5.0;24.0;42.49;-83.42;0.0;863.33878215217;0.0;56.52;;0 / 3;1007;2018-07-25 07:32:02:601
-1.0;4.0;9.0;-1.0;4.0;9.0;0.0;0.0;0.0;0.0;0.0;0.0;38.0;-2.0;12.0;-43.0;15.0;-25.0;8.0;5.0;23.0;42.49;-83.42;0.0;863.33878215217;0.0;56.52;;0 / 3;1507;2018-07-25 07:32:03:101
-1.0;4.0;8.0;-1.0;5.0;8.0;0.0;0.0;0.0;0.0;1.0;0.0;38.0;2.0;9.0;-44.0;10.0;-29.0;9.0;5.0;23.0;42.49;-83.42;0.0;863.33878215217;0.0;56.52;;0 / 4;2007;2018-07-25 07:32:03:601
-4.0;5.0;8.0;-3.0;5.0;8.0;0.0;0.0;1.0;0.0;1.0;0.0;38.0;17.0;7.0;-42.0;4.0;-31.0;23.0;5.0;22.0;42.49;-83.42;0.0;863.33878215217;0.0;56.52;;0 / 4;2508;2018-07-25 07:32:04:102
-3.0;5.0;8.0;-2.0;5.0;8.0;0.0;0.0;0.0;0.0;0.0;0.0;38.0;13.0;7.0;-43.0;0.0;-30.0;17.0;5.0;23.0;42.49;-83.42;0.0;863.33878215217;0.0;56.52;;0 / 5;3007;2018-07-25 07:32:04:601
-2.0;5.0;8.0;-2.0;5.0;8.0;0.0;0.0;0.0;0.0;0.0;0.0;40.0;12.0;5.0;-45.0;358.0;-32.0;14.0;5.0;36.0;42.49;-83.42;0.0;863.33878215217;0.0;56.52;;0 / 5;3508;2018-07-25 07:32:05:102
-6.0;7.0;7.0;-4.0;5.0;7.0;-2.0;2.0;0.0;0.0;2.0;0.0;40.0;20.0;1.0;-41.0;4.0;-34.0;27.0;5.0;27.0;42.49;-83.42;0.0;863.33878215217;0.0;56.52;;0 / 7;4007;2018-07-25 07:32:05:601
-12.0;-6.0;2.0;-9.0;-1.0;4.0;-4.0;-5.0;-1.0;-1.0;3.0;-5.0;40.0;34.0;26.0;-17.0;0.0;-2.0;64.0;5.0;30.0;42.49;-83.42;0.0;863.33878215217;0.0;56.52;;0 / 7;4507;2018-07-25 07:32:06:101
-7.0;-1.0;-1.0;-9.0;-3.0;-1.0;2.0;1.0;-1.0;-1.0;-1.0;1.0;70.0;36.0;33.0;1.0;4.0;17.0;94.0;2.0;31.0;42.49;-83.42;0.0;863.33878215217;0.0;64.08;;5 / 10;5007;2018-07-25 07:32:06:601
-15.0;-5.0;0.0;-9.0;-2.0;2.0;-6.0;-4.0;-8.0;0.0;1.0;-1.0;0.0;32.0;27.0;1.0;341.0;14.0;81.0;0.0;40.0;42.49;-83.42;0.0;863.33878215217;0.0;64.08;;5 / 10;5508;2018-07-25 07:32:07:102
-3.0;-9.0;8.0;1.0;-9.0;4.0;-4.0;-1.0;6.0;0.0;4.0;-1.0;0.0;-26.0;23.0;-18.0;121.0;64.0;-20.0;0.0;45.0;42.49;-83.42;0.0;863.33878215217;0.0;64.08;;5 / 10;6008;2018-07-25 07:32:07:602
0.0;-9.0;-1.0;0.0;-10.0;1.0;1.0;0.0;-2.0;-1.0;4.0;0.0;6.0;-23.0;27.0;-14.0;106.0;81.0;5.0;0.0;46.0;42.49;-83.42;0.0;863.33878215217;0.0;64.08;;5 / 10;6507;2018-07-25 07:32:08:101
-1.0;-11.0;0.0;1.0;-10.0;-1.0;-1.0;0.0;1.0;0.0;1.0;0.0;6.0;-17.0;26.0;-24.0;288.0;83.0;-138.0;0.0;43.0;42.49;-83.42;761.0;863.33878215217;2.0;154.84;;7 / 7;7008;2018-07-25 07:32:08:602
0.0;-10.0;1.0;1.0;-10.0;1.0;-1.0;0.0;0.0;0.0;1.0;0.0;6.0;8.0;16.0;-33.0;222.0;80.0;-27.0;0.0;45.0;42.49;-83.42;761.0;863.33878215217;2.0;154.84;;7 / 7;7508;2018-07-25 07:32:09:102
2.0;-10.0;0.0;1.0;-10.0;0.0;1.0;0.0;1.0;0.0;1.0;0.0;13.0;21.0;22.0;-27.0;300.0;85.0;-81.0;0.0;31.0;42.49;-83.42;761.0;863.33878215217;2.0;154.84;;0 / 7;8008;2018-07-25 07:32:09:602
2.0;-10.0;0.0;1.0;-10.0;0.0;0.0;0.0;1.0;1.0;2.0;0.0;13.0;28.0;27.0;-10.0;353.0;84.0;-103.0;0.0;42.0;42.49;-83.42;761.0;863.33878215217;2.0;154.84;;0 / 7;8507;2018-07-25 07:32:10:101
2.0;-9.0;0.0;1.0;-10.0;1.0;0.0;1.0;-1.0;0.0;1.0;0.0;12.0;26.0;29.0;2.0;329.0;78.0;-48.0;0.0;39.0;42.49;-83.42;761.0;863.33878215217;2.0;154.84;;0 / 7;9007;2018-07-25 07:32:10:601
-1.0;-10.0;-1.0;1.0;-10.0;0.0;-2.0;0.0;-1.0;0.0;0.0;0.0;13.0;26.0;29.0;4.0;15.0;85.0;-97.0;0.0;40.0;42.49;-83.42;761.0;863.33878215217;2.0;154.84;;0 / 7;9508;2018-07-25 07:32:11:102
0.0;-10.0;0.0;1.0;-10.0;0.0;-1.0;0.0;0.0;0.0;0.0;0.0;0.0;25.0;28.0;4.0;12.0;86.0;-93.0;0.0;26.0;42.49;-83.42;;863.33878215217;1.0;7733.9;320.0;5 / 10;10007;2018-07-25 07:32:11:601
1.0;-10.0;0.0;1.0;-10.0;0.0;1.0;0.0;1.0;0.0;-1.0;0.0;2.0;25.0;28.0;5.0;27.0;83.0;-109.0;0.0;32.0;42.49;-83.42;;863.33878215217;1.0;7733.9;320.0;5 / 10;10508;2018-07-25 07:32:12:102
1.0;-10.0;0.0;1.0;-10.0;-1.0;0.0;0.0;0.0;0.0;0.0;0.0;2.0;26.0;29.0;6.0;37.0;83.0;-118.0;0.0;31.0;42.49;-83.42;;863.33878215217;1.0;7733.9;320.0;5 / 10;11008;2018-07-25 07:32:12:602
1.0;-10.0;0.0;1.0;-10.0;-1.0;0.0;0.0;1.0;0.0;0.0;0.0;2.0;25.0;28.0;8.0;48.0;83.0;-126.0;0.0;31.0;42.49;-83.42;;863.33878215217;1.0;7733.9;320.0;5 / 10;11507;2018-07-25 07:32:13:101
1.0;-10.0;-1.0;1.0;-10.0;-1.0;0.0;0.0;0.0;0.0;0.0;0.0;3.0;23.0;29.0;10.0;57.0;83.0;-130.0;0.0;31.0;42.49;-83.42;;863.33878215217;1.0;7733.9;320.0;5 / 11;12007;2018-07-25 07:32:13:601
0.0;-10.0;0.0;1.0;-10.0;-1.0;-1.0;0.0;1.0;0.0;0.0;0.0;2.0;22.0;30.0;6.0;55.0;83.0;-137.0;0.0;33.0;42.49;-83.42;;863.33878215217;1.0;7733.9;320.0;5 / 11;12507;2018-07-25 07:32:14:101
1.0;-10.0;-1.0;1.0;-10.0;-1.0;0.0;0.0;0.0;0.0;0.0;0.0;2.0;22.0;31.0;7.0;56.0;83.0;-139.0;0.0;34.0;42.49;-83.42;;863.33878215217;1.0;7733.9;320.0;5 / 11;13007;2018-07-25 07:32:14:601
1.0;-10.0;-1.0;1.0;-10.0;-1.0;0.0;0.0;0.0;0.0;0.0;0.0;0.0;20.0;32.0;5.0;47.0;84.0;-129.0;0.0;31.0;42.49;-83.42;;863.33878215217;1.0;7733.9;320.0;5 / 11;13508;2018-07-25 07:32:15:102
1.0;-10.0;-1.0;1.0;-10.0;-1.0;0.0;0.0;0.0;0.0;0.0;0.0;0.0;19.0;32.0;7.0;60.0;82.0;-140.0;0.0;32.0;42.49;-83.42;;863.33878215217;1.0;7733.9;320.0;5 / 11;14007;2018-07-25 07:32:15:601
1.0;-10.0;-1.0;1.0;-10.0;-1.0;0.0;0.0;0.0;0.0;0.0;0.0;0.0;19.0;32.0;7.0;60.0;83.0;-139.0;0.0;36.0;42.49;-83.42;;863.33878215217;1.0;7733.9;320.0;5 / 11;14507;2018-07-25 07:32:16:101
1.0;-10.0;-1.0;1.0;-10.0;-1.0;0.0;0.0;0.0;0.0;0.0;0.0;0.0;18.0;34.0;7.0;60.0;83.0;-139.0;0.0;38.0;42.49;-83.42;;863.33878215217;1.0;7733.9;320.0;5 / 11;15008;2018-07-25 07:32:16:602
1.0;-10.0;-1.0;1.0;-10.0;-1.0;0.0;0.0;0.0;0.0;0.0;0.0;0.0;18.0;33.0;7.0;61.0;83.0;-141.0;0.0;28.0;42.49;-83.42;;863.33878215217;1.0;7733.9;320.0;5 / 11;15508;2018-07-25 07:32:17:102
1.0;-10.0;-1.0;1.0;-10.0;-1.0;0.0;0.0;0.0;0.0;0.0;0.0;2.0;17.0;33.0;7.0;64.0;83.0;-140.0;0.0;33.0;42.49;-83.42;;863.33878215217;1.0;7733.9;320.0;5 / 11;16008;2018-07-25 07:32:17:602
1.0;-10.0;-1.0;1.0;-10.0;-1.0;0.0;0.0;0.0;0.0;0.0;0.0;2.0;18.0;33.0;7.0;61.0;83.0;-140.0;0.0;41.0;42.49;-83.42;;863.33878215217;1.0;7733.9;320.0;5 / 11;16508;2018-07-25 07:32:18:102
1.0;-8.0;-1.0;1.0;-10.0;-1.0;0.0;2.0;0.0;0.0;0.0;0.0;2.0;18.0;33.0;8.0;65.0;83.0;-141.0;0.0;35.0;42.49;-83.42;;863.33878215217;1.0;7733.9;320.0;0 / 8;17007;2018-07-25 07:32:18:601
1.0;-10.0;-1.0;1.0;-10.0;-1.0;1.0;0.0;0.0;0.0;0.0;0.0;3.0;17.0;30.0;8.0;71.0;82.0;-147.0;0.0;30.0;42.49;-83.42;;863.33878215217;1.0;7733.9;320.0;0 / 8;17508;2018-07-25 07:32:19:102
1.0;-10.0;-1.0;1.0;-10.0;-1.0;0.0;0.0;0.0;0.0;0.0;0.0;3.0;16.0;27.0;10.0;71.0;83.0;-138.0;0.0;30.0;42.49;-83.42;;863.33878215217;1.0;7733.9;320.0;5 / 11;18007;2018-07-25 07:32:19:601
1.0;-10.0;-1.0;1.0;-10.0;-1.0;0.0;0.0;0.0;0.0;0.0;0.0;3.0;15.0;25.0;15.0;84.0;83.0;-137.0;0.0;27.0;42.49;-83.42;;863.33878215217;1.0;7733.9;320.0;5 / 11;18508;2018-07-25 07:32:20:102
1.0;-10.0;-1.0;1.0;-10.0;-1.0;0.0;0.0;0.0;0.0;0.0;0.0;2.0;14.0;26.0;20.0;97.0;83.0;-140.0;0.0;26.0;42.49;-83.42;;863.33878215217;1.0;7733.9;320.0;5 / 11;19007;2018-07-25 07:32:20:601
1.0;-10.0;-1.0;1.0;-10.0;-1.0;0.0;0.0;0.0;0.0;0.0;0.0;2.0;15.0;31.0;22.0;93.0;83.0;-135.0;0.0;26.0;42.49;-83.42;;863.33878215217;1.0;7733.9;320.0;5 / 11;19507;2018-07-25 07:32:21:101
1.0;-10.0;-1.0;1.0;-10.0;-1.0;0.0;0.0;0.0;0.0;0.0;0.0;2.0;17.0;37.0;20.0;88.0;83.0;-137.0;0.0;25.0;42.49;-83.42;;863.33878215217;1.0;7733.9;320.0;5 / 11;20008;2018-07-25 07:32:21:602
1.0;-10.0;-1.0;1.0;-10.0;-1.0;0.0;0.0;0.0;0.0;0.0;0.0;2.0;18.0;38.0;17.0;82.0;83.0;-139.0;0.0;26.0;42.49;-83.42;;863.33878215217;1.0;7733.9;320.0;5 / 11;20507;2018-07-25 07:32:22:101
1.0;-10.0;-1.0;1.0;-10.0;-1.0;0.0;0.0;0.0;0.0;0.0;0.0;2.0;18.0;37.0;15.0;79.0;83.0;-140.0;0.0;26.0;42.49;-83.42;;863.33878215217;1.0;7733.9;320.0;5 / 11;21008;2018-07-25 07:32:22:602
1.0;-10.0;-1.0;1.0;-10.0;-1.0;0.0;0.0;0.0;0.0;0.0;0.0;0.0;19.0;36.0;12.0;71.0;83.0;-139.0;0.0;26.0;42.49;-83.42;;863.33878215217;1.0;7733.9;320.0;5 / 11;21508;2018-07-25 07:32:23:102
1.0;-10.0;-1.0;1.0;-10.0;-1.0;0.0;-1.0;0.0;0.0;0.0;0.0;0.0;19.0;34.0;11.0;70.0;83.0;-140.0;0.0;29.0;42.49;-83.42;;863.33878215217;1.0;7733.9;320.0;5 / 11;22008;2018-07-25 07:32:23:602
1.0;-10.0;-1.0;1.0;-10.0;-1.0;0.0;0.0;0.0;0.0;0.0;0.0;0.0;19.0;33.0;11.0;72.0;83.0;-142.0;0.0;29.0;42.49;-83.42;;863.33878215217;1.0;7733.9;320.0;5 / 11;22508;2018-07-25 07:32:24:102
1.0;-10.0;0.0;1.0;-10.0;-1.0;0.0;0.0;1.0;0.0;0.0;0.0;0.0;20.0;32.0;12.0;76.0;83.0;-145.0;0.0;34.0;42.49;-83.42;;863.33878215217;1.0;7733.9;320.0;5 / 10;23007;2018-07-25 07:32:24:601
1.0;-10.0;-1.0;1.0;-10.0;-1.0;0.0;0.0;0.0;0.0;0.0;0.0;2.0;19.0;32.0;12.0;76.0;83.0;-143.0;0.0;22.0;42.49;-83.42;;863.33878215217;1.0;7733.9;320.0;5 / 10;23507;2018-07-25 07:32:25:101
1.0;-10.0;-1.0;1.0;-10.0;-1.0;0.0;0.0;0.0;0.0;0.0;0.0;1.0;19.0;31.0;12.0;75.0;83.0;-142.0;0.0;21.0;42.49;-83.42;;863.33878215217;1.0;7733.9;320.0;5 / 10;24007;2018-07-25 07:32:25:601
1.0;-10.0;-1.0;1.0;-10.0;-1.0;0.0;0.0;0.0;0.0;0.0;0.0;2.0;19.0;31.0;12.0;75.0;83.0;-142.0;0.0;21.0;42.49;-83.42;;863.33878215217;1.0;7733.9;320.0;5 / 10;24507;2018-07-25 07:32:26:101
1.0;-10.0;-1.0;1.0;-10.0;-1.0;0.0;0.0;0.0;0.0;0.0;0.0;2.0;19.0;31.0;12.0;79.0;83.0;-144.0;0.0;18.0;42.49;-83.42;;863.33878215217;1.0;7733.9;320.0;5 / 10;25007;2018-07-25 07:32:26:601
1.0;-10.0;-1.0;1.0;-10.0;-1.0;0.0;0.0;0.0;0.0;0.0;0.0;2.0;19.0;31.0;12.0;79.0;83.0;-146.0;0.0;18.0;42.49;-83.42;;863.33878215217;1.0;7733.9;320.0;5 / 10;25508;2018-07-25 07:32:27:102
1.0;-10.0;-1.0;1.0;-10.0;-1.0;0.0;0.0;0.0;0.0;0.0;0.0;3.0;20.0;30.0;13.0;80.0;83.0;-145.0;0.0;18.0;42.49;-83.42;;863.33878215217;1.0;7733.9;320.0;0 / 6;26008;2018-07-25 07:32:27:602
1.0;-10.0;-1.0;1.0;-10.0;-1.0;0.0;0.0;0.0;0.0;0.0;0.0;2.0;19.0;30.0;13.0;80.0;83.0;-145.0;0.0;18.0;42.49;-83.42;;863.33878215217;1.0;7733.9;320.0;0 / 6;26508;2018-07-25 07:32:28:102
1.0;-10.0;-1.0;1.0;-10.0;-1.0;0.0;0.0;0.0;0.0;0.0;0.0;2.0;19.0;30.0;14.0;82.0;83.0;-145.0;0.0;19.0;42.49;-83.42;;863.33878215217;1.0;7733.9;320.0;5 / 10;27007;2018-07-25 07:32:28:601
1.0;-10.0;-1.0;1.0;-10.0;-1.0;0.0;0.0;0.0;0.0;0.0;0.0;2.0;19.0;30.0;14.0;84.0;82.0;-147.0;0.0;20.0;42.49;-83.42;;863.33878215217;1.0;7733.9;320.0;5 / 10;27508;2018-07-25 07:32:29:102
1.0;-10.0;-1.0;1.0;-10.0;-1.0;0.0;0.0;0.0;0.0;0.0;0.0;2.0;19.0;31.0;14.0;84.0;83.0;-147.0;0.0;19.0;42.49;-83.42;;863.33878215217;1.0;7733.9;320.0;5 / 10;28007;2018-07-25 07:32:29:601
1.0;-10.0;-1.0;1.0;-10.0;-1.0;0.0;0.0;0.0;0.0;0.0;0.0;2.0;19.0;29.0;15.0;87.0;83.0;-147.0;0.0;18.0;42.49;-83.42;;863.33878215217;1.0;7733.9;320.0;5 / 10;28508;2018-07-25 07:32:30:102
1.0;-10.0;0.0;1.0;-10.0;-1.0;0.0;0.0;1.0;0.0;0.0;0.0;2.0;19.0;30.0;15.0;89.0;83.0;-150.0;0.0;35.0;42.49;-83.42;;863.33878215217;1.0;7733.9;320.0;0 / 5;29007;2018-07-25 07:32:30:601
1.0;-10.0;-1.0;1.0;-10.0;-1.0;0.0;0.0;0.0;0.0;0.0;0.0;2.0;19.0;30.0;15.0;86.0;83.0;-147.0;0.0;29.0;42.49;-83.42;;863.33878215217;1.0;7733.9;320.0;0 / 5;29507;2018-07-25 07:32:31:101
1.0;-10.0;-1.0;1.0;-10.0;-1.0;0.0;0.0;0.0;0.0;0.0;0.0;2.0;18.0;29.0;15.0;87.0;83.0;-147.0;0.0;27.0;42.49;-83.42;;863.33878215217;1.0;7733.9;320.0;5 / 9;30007;2018-07-25 07:32:31:601
0.0;-10.0;-1.0;1.0;-10.0;-1.0;0.0;0.0;0.0;0.0;0.0;0.0;2.0;19.0;29.0;15.0;92.0;82.0;-153.0;0.0;27.0;42.49;-83.42;;863.33878215217;1.0;7733.9;320.0;5 / 9;30508;2018-07-25 07:32:32:102
0.0;-10.0;-1.0;0.0;-10.0;-1.0;0.0;0.0;0.0;-1.0;0.0;0.0;2.0;19.0;30.0;16.0;96.0;84.0;-153.0;0.0;33.0;42.49;-83.42;;863.33878215217;1.0;7733.9;320.0;5 / 9;31007;2018-07-25 07:32:32:601
2.0;-11.0;-1.0;1.0;-10.0;1.0;1.0;-1.0;-2.0;1.0;1.0;0.0;1.0;18.0;35.0;8.0;328.0;82.0;-27.0;0.0;36.0;42.49;-83.42;;863.33878215217;1.0;7733.9;320.0;5 / 9;31508;2018-07-25 07:32:33:102
1.0;-9.0;3.0;2.0;-10.0;2.0;0.0;1.0;1.0;-1.0;-1.0;0.0;3.0;18.0;33.0;0.0;326.0;77.0;-43.0;0.0;46.0;42.49;-83.42;;863.33878215217;1.0;7733.9;320.0;5 / 8;32008;2018-07-25 07:32:33:602
0.0;-10.0;-1.0;1.0;-10.0;0.0;-1.0;0.0;-1.0;-2.0;-1.0;0.0;3.0;20.0;32.0;3.0;332.0;85.0;-52.0;0.0;41.0;42.49;-83.42;;863.33878215217;1.0;7733.9;320.0;5 / 8;32508;2018-07-25 07:32:34:102
0.0;-10.0;1.0;0.0;-10.0;-1.0;-1.0;0.0;2.0;-1.0;-1.0;0.0;5.0;22.0;31.0;8.0;74.0;84.0;-152.0;0.0;36.0;42.49;-83.42;;863.33878215217;1.0;7733.9;320.0;5 / 8;33007;2018-07-25 07:32:34:601
1.0;-11.0;-2.0;1.0;-9.0;2.0;0.0;-1.0;-3.0;1.0;2.0;0.0;5.0;24.0;34.0;-1.0;313.0;76.0;-30.0;0.0;40.0;42.49;-83.42;;863.33878215217;1.0;7733.9;320.0;5 / 8;33508;2018-07-25 07:32:35:102
6.0;-14.0;-3.0;1.0;-10.0;2.0;5.0;-1.0;-5.0;-1.0;2.0;-1.0;5.0;31.0;35.0;2.0;303.0;80.0;-20.0;0.0;45.0;42.49;-83.42;;863.33878215217;1.0;7733.9;320.0;5 / 8;34008;2018-07-25 07:32:35:602
0.0;-10.0;-1.0;1.0;-10.0;-1.0;-1.0;0.0;1.0;0.0;-1.0;0.0;4.0;26.0;38.0;1.0;55.0;81.0;-151.0;0.0;43.0;42.49;-83.42;;863.33878215217;1.0;7733.9;320.0;5 / 8;34507;2018-07-25 07:32:36:101
0.0;-9.0;1.0;0.0;-9.0;3.0;-2.0;1.0;-2.0;1.0;0.0;1.0;3.0;17.0;35.0;-16.0;259.0;75.0;-6.0;0.0;46.0;42.49;-83.42;;863.33878215217;1.0;7733.9;320.0;5 / 8;35007;2018-07-25 07:32:36:601
-1.0;-11.0;-2.0;1.0;-10.0;1.0;-1.0;-2.0;-3.0;0.0;-1.0;0.0;3.0;14.0;45.0;-16.0;264.0;83.0;-28.0;0.0;50.0;42.49;-83.42;;863.33878215217;1.0;7733.9;320.0;5 / 8;35507;2018-07-25 07:32:37:101
2.0;-12.0;4.0;1.0;-10.0;-2.0;-2.0;-3.0;4.0;3.0;0.0;1.0;5.0;17.0;48.0;-4.0;39.0;77.0;-165.0;0.0;33.0;42.49;-83.42;;863.33878215217;1.0;7733.9;320.0;5 / 8;36007;2018-07-25 07:32:37:601
3.0;-6.0;4.0;1.0;-9.0;3.0;2.0;3.0;2.0;1.0;-1.0;0.0;5.0;17.0;37.0;-29.0;242.0;69.0;-8.0;0.0;47.0;42.49;-83.42;;863.33878215217;1.0;7733.9;320.0;5 / 8;36508;2018-07-25 07:32:38:102
0.0;-12.0;8.0;1.0;-9.0;-3.0;0.0;-3.0;8.0;-1.0;2.0;0.0;2.0;16.0;49.0;4.0;47.0;73.0;-162.0;0.0;36.0;42.49;-83.42;;863.33878215217;1.0;7733.9;320.0;0 / 4;37008;2018-07-25 07:32:38:602
2.0;-22.0;20.0;0.0;-9.0;3.0;0.0;-5.0;17.0;0.0;-1.0;-1.0;7.0;19.0;41.0;-24.0;244.0;72.0;-2.0;0.0;48.0;42.49;-83.42;;863.33878215217;1.0;7733.9;320.0;0 / 4;37508;2018-07-25 07:32:39:102
0.0;-10.0;0.0;1.0;-10.0;-2.0;0.0;0.0;2.0;0.0;0.0;0.0;8.0;18.0;46.0;0.0;51.0;79.0;-163.0;0.0;43.0;42.49;-83.42;;863.33878215217;1.0;7733.9;320.0;0 / 4;38008;2018-07-25 07:32:39:602
2.0;-3.0;-2.0;0.0;-9.0;4.0;3.0;6.0;-7.0;-2.0;-1.0;0.0;8.0;28.0;31.0;-18.0;257.0;65.0;6.0;0.0;45.0;42.49;-83.42;;863.33878215217;1.0;7733.9;320.0;0 / 4;38508;2018-07-25 07:32:40:102
0.0;-10.0;1.0;1.0;-10.0;-2.0;-1.0;1.0;1.0;-2.0;-1.0;0.0;8.0;21.0;44.0;7.0;58.0;81.0;-149.0;0.0;51.0;42.49;-83.42;;863.33878215217;1.0;7733.9;320.0;0 / 4;39008;2018-07-25 07:32:40:602
2.0;-3.0;-3.0;0.0;-9.0;3.0;2.0;6.0;-7.0;0.0;-1.0;0.0;8.0;27.0;43.0;-8.0;273.0;73.0;8.0;0.0;38.0;42.49;-83.42;;863.33878215217;1.0;7733.9;320.0;0 / 4;39508;2018-07-25 07:32:41:102
0.0;-7.0;1.0;1.0;-10.0;-1.0;-2.0;2.0;3.0;-1.0;0.0;0.0;5.0;21.0;47.0;10.0;52.0;82.0;-132.0;0.0;51.0;42.49;-83.42;;863.33878215217;1.0;7733.9;320.0;0 / 5;40008;2018-07-25 07:32:41:602
-2.0;-7.0;-2.0;0.0;-9.0;3.0;-5.0;2.0;-4.0;1.0;-1.0;1.0;8.0;25.0;45.0;-8.0;279.0;72.0;6.0;0.0;49.0;42.49;-83.42;;863.33878215217;1.0;7733.9;320.0;0 / 5;40508;2018-07-25 07:32:42:102
0.0;-11.0;3.0;1.0;-10.0;0.0;-2.0;0.0;2.0;-2.0;0.0;0.0;8.0;15.0;48.0;4.0;354.0;83.0;-78.0;0.0;52.0;42.49;-83.42;;863.33878215217;1.0;7733.9;320.0;0 / 5;41007;2018-07-25 07:32:42:601
1.0;-5.0;-1.0;0.0;-10.0;2.0;2.0;3.0;-4.0;1.0;0.0;1.0;5.0;19.0;42.0;-6.0;285.0;76.0;-2.0;0.0;44.0;42.49;-83.42;;863.33878215217;1.0;7733.9;320.0;0 / 5;41508;2018-07-25 07:32:43:102
1.0;-8.0;-1.0;1.0;-10.0;2.0;-1.0;1.0;-4.0;-1.0;0.0;0.0;5.0;13.0;43.0;-1.0;318.0;78.0;-30.0;0.0;51.0;42.49;-83.42;;863.33878215217;1.0;7733.9;320.0;0 / 5;42008;2018-07-25 07:32:43:602
4.0;-13.0;-3.0;1.0;-10.0;1.0;2.0;-4.0;-6.0;2.0;5.0;0.0;5.0;16.0;44.0;-2.0;313.0;80.0;-32.0;0.0;45.0;42.49;-83.42;;863.33878215217;1.0;7733.9;320.0;0 / 5;42507;2018-07-25 07:32:44:101
2.0;-12.0;-3.0;1.0;-10.0;2.0;1.0;-6.0;-5.0;0.0;1.0;0.0;4.0;15.0;45.0;-9.0;280.0;78.0;-10.0;0.0;47.0;42.49;-83.42;;863.33878215217;1.0;7733.9;320.0;0 / 5;43008;2018-07-25 07:32:44:602
2.0;-11.0;2.0;1.0;-10.0;-2.0;1.0;-2.0;2.0;-1.0;1.0;0.0;4.0;11.0;47.0;5.0;43.0;78.0;-141.0;0.0;36.0;42.49;-83.42;;863.33878215217;1.0;7733.9;320.0;0 / 5;43508;2018-07-25 07:32:45:102
3.0;-9.0;3.0;1.0;-9.0;3.0;1.0;0.0;1.0;0.0;-1.0;0.0;9.0;11.0;42.0;-23.0;259.0;69.0;-15.0;0.0;41.0;42.49;-83.42;;863.33878215217;1.0;7733.9;320.0;0 / 6;44007;2018-07-25 07:32:45:601
-1.0;-10.0;-1.0;1.0;-10.0;2.0;-3.0;-1.0;-3.0;0.0;-2.0;0.0;7.0;4.0;45.0;-21.0;262.0;78.0;-44.0;0.0;38.0;42.49;-83.42;;863.33878215217;1.0;7733.9;320.0;0 / 6;44507;2018-07-25 07:32:46:101
0.0;-10.0;0.0;1.0;-10.0;-1.0;-1.0;0.0;2.0;0.0;-1.0;0.0;14.0;-2.0;49.0;-10.0;328.0;80.0;-129.0;0.0;34.0;42.49;-83.42;;863.33878215217;1.0;7733.9;320.0;0 / 7;45007;2018-07-25 07:32:46:601
-1.0;-9.0;2.0;1.0;-9.0;3.0;-2.0;0.0;0.0;0.0;-1.0;1.0;14.0;0.0;40.0;-29.0;207.0;73.0;-16.0;0.0;45.0;42.49;-83.42;;863.33878215217;1.0;7733.9;320.0;0 / 7;45507;2018-07-25 07:32:47:101
1.0;-7.0;4.0;1.0;-10.0;1.0;1.0;0.0;2.0;-2.0;0.0;0.0;10.0;-9.0;43.0;-23.0;209.0;78.0;-40.0;0.0;46.0;42.49;-83.42;;863.33878215217;1.0;7733.9;320.0;0 / 7;46008;2018-07-25 07:32:47:602
1.0;-10.0;-1.0;1.0;-10.0;-2.0;-1.0;-1.0;1.0;0.0;0.0;0.0;10.0;-10.0;47.0;-9.0;306.0;78.0;-137.0;0.0;39.0;42.49;-83.42;;863.33878215217;1.0;7733.9;320.0;0 / 7;46507;2018-07-25 07:32:48:101
2.0;-5.0;-1.0;0.0;-9.0;3.0;2.0;4.0;-5.0;0.0;-1.0;0.0;5.0;1.0;38.0;-31.0;182.0;71.0;3.0;0.0;45.0;42.49;-83.42;;863.33878215217;1.0;7733.9;320.0;0 / 8;47008;2018-07-25 07:32:48:602
1.0;-9.0;1.0;1.0;-10.0;1.0;0.0;0.0;1.0;-1.0;0.0;0.0;9.0;-11.0;43.0;-20.0;207.0;81.0;-47.0;0.0;48.0;42.49;-83.42;;863.33878215217;1.0;7733.9;320.0;0 / 8;47507;2018-07-25 07:32:49:101
-1.0;-10.0;-1.0;1.0;-10.0;0.0;-1.0;-1.0;2.0;2.0;-1.0;0.0;9.0;-12.0;44.0;-15.0;275.0;80.0;-112.0;0.0;37.0;42.49;-83.42;;863.33878215217;1.0;7733.9;320.0;0 / 9;48008;2018-07-25 07:32:49:602
3.0;-10.0;5.0;1.0;-9.0;2.0;2.0;0.0;1.0;-1.0;-2.0;0.0;7.0;-11.0;40.0;-25.0;193.0;74.0;-31.0;0.0;39.0;42.49;-83.42;;863.33878215217;1.0;7733.9;320.0;0 / 9;48507;2018-07-25 07:32:50:101
1.0;-9.0;2.0;1.0;-9.0;2.0;0.0;0.0;0.0;0.0;0.0;0.0;11.0;-12.0;40.0;-26.0;193.0;75.0;-33.0;0.0;34.0;42.49;-83.42;795.0;863.33878215217;1.0;154.84;;5 / 12;49008;2018-07-25 07:32:50:602
1.0;-9.0;2.0;1.0;-9.0;2.0;0.0;0.0;0.0;0.0;0.0;0.0;8.0;-11.0;39.0;-27.0;188.0;75.0;-29.0;0.0;34.0;42.49;-83.42;795.0;863.33878215217;1.0;154.84;;5 / 12;49507;2018-07-25 07:32:51:101
1.0;-9.0;2.0;1.0;-9.0;2.0;0.0;0.0;0.0;0.0;0.0;0.0;8.0;-13.0;39.0;-26.0;192.0;75.0;-32.0;0.0;33.0;42.49;-83.42;;863.33878215217;5.0;12753.34;104.0;5 / 11;50007;2018-07-25 07:32:51:601
1.0;-9.0;2.0;1.0;-9.0;2.0;0.0;0.0;0.0;0.0;0.0;0.0;8.0;-14.0;39.0;-25.0;189.0;75.0;-35.0;0.0;34.0;42.49;-83.42;;863.33878215217;5.0;12753.34;104.0;5 / 11;50507;2018-07-25 07:32:52:101
2.0;-9.0;2.0;1.0;-10.0;2.0;0.0;0.0;0.0;0.0;0.0;0.0;4.0;-13.0;40.0;-26.0;192.0;76.0;-34.0;0.0;35.0;42.49;-83.42;785.0;863.33878215217;3.0;154.84;95.0;7 / 8;51007;2018-07-25 07:32:52:601
2.0;-9.0;1.0;1.0;-10.0;2.0;0.0;0.0;-1.0;0.0;1.0;0.0;5.0;-10.0;40.0;-25.0;198.0;78.0;-34.0;0.0;33.0;42.49;-83.42;785.0;863.33878215217;3.0;154.84;95.0;7 / 8;51508;2018-07-25 07:32:53:102
1.0;-9.0;1.0;2.0;-9.0;1.0;-1.0;0.0;0.0;0.0;1.0;0.0;6.0;-12.0;40.0;-25.0;222.0;75.0;-55.0;0.0;35.0;42.49;-83.42;824.0;863.33878215217;2.0;103.23;95.0;7 / 8;52008;2018-07-25 07:32:53:602
2.0;-10.0;-1.0;1.0;-10.0;0.0;1.0;0.0;-1.0;0.0;-1.0;0.0;6.0;-2.0;45.0;-16.0;296.0;82.0;-103.0;0.0;36.0;42.49;-83.42;824.0;863.33878215217;2.0;103.23;95.0;7 / 8;52508;2018-07-25 07:32:54:102
1.0;-10.0;0.0;1.0;-10.0;-1.0;0.0;0.0;1.0;0.0;1.0;0.0;8.0;3.0;47.0;-10.0;344.0;83.0;-141.0;0.0;35.0;42.49;-83.42;824.0;863.33878215217;2.0;103.23;95.0;7 / 7;53008;2018-07-25 07:32:54:602
4.0;-8.0;-2.0;1.0;-10.0;-1.0;2.0;1.0;-1.0;0.0;3.0;0.0;8.0;4.0;47.0;-7.0;351.0;79.0;-133.0;0.0;34.0;42.49;-83.42;824.0;863.33878215217;2.0;103.23;95.0;7 / 7;53508;2018-07-25 07:32:55:102
3.0;-8.0;0.0;3.0;-9.0;1.0;1.0;1.0;-1.0;0.0;1.0;0.0;5.0;3.0;48.0;-5.0;339.0;72.0;-63.0;0.0;35.0;42.49;-83.42;824.0;863.33878215217;2.0;103.23;95.0;7 / 7;54007;2018-07-25 07:32:55:601
0.0;-10.0;-2.0;1.0;-10.0;0.0;-1.0;0.0;-2.0;0.0;0.0;0.0;6.0;8.0;46.0;9.0;25.0;81.0;-80.0;0.0;36.0;42.49;-83.42;824.0;863.33878215217;2.0;103.23;95.0;7 / 7;54507;2018-07-25 07:32:56:101
1.0;-10.0;-1.0;2.0;-10.0;-1.0;-1.0;0.0;1.0;0.0;0.0;0.0;6.0;-2.0;42.0;22.0;112.0;78.0;-130.0;0.0;34.0;42.49;-83.42;836.0;863.33878215217;2.0;77.42;187.0;8 / 8;55008;2018-07-25 07:32:56:602
0.0;-10.0;1.0;1.0;-10.0;2.0;-1.0;0.0;-2.0;0.0;1.0;0.0;5.0;-10.0;46.0;7.0;49.0;78.0;-30.0;0.0;37.0;42.49;-83.42;836.0;863.33878215217;2.0;77.42;187.0;8 / 8;55508;2018-07-25 07:32:57:102
0.0;-10.0;3.0;1.0;-10.0;2.0;-1.0;0.0;1.0;0.0;-1.0;0.0;6.0;-8.0;46.0;8.0;38.0;78.0;-23.0;0.0;43.0;42.49;-83.42;839.0;863.3263667978205;1.0;77.42;187.0;8 / 8;56008;2018-07-25 07:32:57:602
1.0;-10.0;2.0;1.0;-10.0;0.0;1.0;0.0;2.0;-1.0;1.0;0.0;6.0;-5.0;43.0;20.0;113.0;83.0;-112.0;0.0;35.0;42.49;-83.42;839.0;863.3263667978205;1.0;77.42;187.0;8 / 8;56508;2018-07-25 07:32:58:102
0.0;-12.0;-2.0;1.0;-10.0;0.0;-2.0;-3.0;-4.0;3.0;0.0;0.0;6.0;-5.0;45.0;16.0;125.0;80.0;-129.0;0.0;33.0;42.49;-83.42;846.0;863.3263667978205;1.0;77.42;298.0;8 / 8;57007;2018-07-25 07:32:58:601
2.0;-9.0;4.0;1.0;-9.0;2.0;0.0;0.0;3.0;0.0;-1.0;0.0;6.0;-4.0;48.0;6.0;21.0;73.0;-31.0;0.0;42.0;42.49;-83.42;846.0;862.7160154189398;1.0;77.42;298.0;8 / 8;57508;2018-07-25 07:32:59:102
-1.0;-9.0;2.0;1.0;-10.0;-1.0;-2.0;0.0;3.0;-1.0;1.0;0.0;7.0;-1.0;43.0;21.0;103.0;82.0;-116.0;0.0;36.0;42.49;-83.42;852.0;862.7160154189398;1.0;77.42;298.0;8 / 8;58007;2018-07-25 07:32:59:601
-2.0;-11.0;-4.0;2.0;-10.0;1.0;-3.0;-1.0;-7.0;1.0;-2.0;0.0;9.0;-9.0;48.0;10.0;69.0;80.0;-60.0;0.0;33.0;42.49;-83.42;852.0;862.9278763116505;1.0;77.42;298.0;8 / 8;58507;2018-07-25 07:33:00:101
1.0;-9.0;1.0;1.0;-10.0;2.0;0.0;1.0;-1.0;-1.0;-1.0;0.0;7.0;2.0;48.0;10.0;13.0;78.0;-37.0;0.0;44.0;42.49;-83.42;852.0;862.9278763116505;1.0;103.23;300.0;8 / 8;59008;2018-07-25 07:33:00:602
1.0;-10.0;1.0;1.0;-10.0;-1.0;0.0;0.0;2.0;0.0;0.0;0.0;7.0;13.0;47.0;11.0;49.0;83.0;-113.0;0.0;35.0;42.49;-83.42;852.0;862.9278763116505;1.0;103.23;300.0;8 / 8;59507;2018-07-25 07:33:01:101
0.0;-10.0;-1.0;1.0;-10.0;-1.0;-1.0;0.0;0.0;0.0;0.0;0.0;6.0;14.0;48.0;8.0;56.0;83.0;-133.0;0.0;33.0;42.49;-83.42;850.0;862.9278763116505;2.0;103.23;289.0;7 / 8;60007;2018-07-25 07:33:01:601
2.0;-9.0;2.0;2.0;-10.0;0.0;-2.0;0.0;2.0;1.0;1.0;0.0;2.0;10.0;49.0;2.0;7.0;81.0;-86.0;0.0;31.0;42.49;-83.42;850.0;862.9278763116505;2.0;103.23;289.0;7 / 8;60507;2018-07-25 07:33:02:101
2.0;-9.0;2.0;1.0;-10.0;1.0;0.0;0.0;0.0;0.0;-1.0;0.0;2.0;12.0;49.0;-1.0;327.0;80.0;-40.0;0.0;35.0;42.49;-83.42;851.0;862.9278763116505;2.0;77.42;290.0;7 / 9;61008;2018-07-25 07:33:02:602
3.0;-12.0;-1.0;2.0;-10.0;1.0;1.0;-2.0;-2.0;-1.0;1.0;0.0;2.0;11.0;50.0;-3.0;330.0;78.0;-53.0;0.0;36.0;42.49;-83.42;851.0;862.9278763116505;2.0;77.42;290.0;7 / 9;61508;2018-07-25 07:33:03:102
1.0;-10.0;3.0;1.0;-10.0;-2.0;1.0;0.0;4.0;-1.0;1.0;0.0;2.0;13.0;45.0;18.0;88.0;78.0;-152.0;0.0;34.0;42.49;-83.42;852.0;862.9278763116505;1.0;77.42;234.0;6 / 9;62007;2018-07-25 07:33:03:601
-1.0;-9.0;1.0;1.0;-10.0;2.0;-2.0;0.0;-1.0;2.0;-2.0;0.0;4.0;11.0;49.0;2.0;327.0;78.0;-17.0;0.0;37.0;42.49;-83.42;852.0;862.9278763116505;1.0;77.42;234.0;6 / 9;62508;2018-07-25 07:33:04:102
3.0;-10.0;2.0;1.0;-9.0;2.0;0.0;1.0;0.0;0.0;-2.0;0.0;4.0;14.0;48.0;-9.0;306.0;73.0;-25.0;0.0;40.0;42.49;-83.42;852.0;862.9278763116505;1.0;77.42;234.0;5 / 12;63008;2018-07-25 07:33:04:602
1.0;-10.0;-1.0;1.0;-10.0;0.0;0.0;0.0;-1.0;0.0;0.0;0.0;3.0;12.0;49.0;-6.0;349.0;83.0;-101.0;0.0;41.0;42.49;-83.42;852.0;862.9278763116505;1.0;77.42;234.0;5 / 12;63508;2018-07-25 07:33:05:102
1.0;-10.0;1.0;1.0;-10.0;-1.0;-1.0;0.0;2.0;3.0;0.0;0.0;2.0;3.0;51.0;-14.0;341.0;79.0;-130.0;0.0;33.0;42.49;-83.42;848.0;862.9278763116505;1.0;77.42;247.0;5 / 9;64007;2018-07-25 07:33:05:601
1.0;-9.0;3.0;1.0;-9.0;3.0;0.0;0.0;1.0;-1.0;-1.0;0.0;2.0;4.0;43.0;-28.0;219.0;72.0;-11.0;0.0;43.0;42.49;-83.42;848.0;862.9278763116505;1.0;77.42;247.0;5 / 9;64508;2018-07-25 07:33:06:102
0.0;-10.0;0.0;1.0;-10.0;0.0;-1.0;0.0;-1.0;-2.0;-1.0;0.0;2.0;-7.0;48.0;-15.0;268.0;82.0;-88.0;0.0;38.0;42.49;-83.42;;862.9278763116505;1.0;824.66;199.0;5 / 12;65007;2018-07-25 07:33:06:601
4.0;-10.0;-4.0;1.0;-10.0;1.0;4.0;0.0;-5.0;1.0;2.0;0.0;9.0;1.0;47.0;-18.0;286.0;82.0;-87.0;0.0;35.0;42.49;-83.42;;862.9278763116505;1.0;824.66;199.0;5 / 12;65508;2018-07-25 07:33:07:102
2.0;-9.0;2.0;2.0;-9.0;2.0;0.0;0.0;-1.0;0.0;-1.0;0.0;7.0;0.0;43.0;-26.0;240.0;73.0;-33.0;0.0;39.0;42.49;-83.42;847.0;862.9278763116505;1.0;77.42;201.0;8 / 12;66008;2018-07-25 07:33:07:602
0.0;-10.0;0.0;2.0;-10.0;0.0;-1.0;0.0;0.0;0.0;-1.0;0.0;7.0;-2.0;47.0;-16.0;288.0;80.0;-86.0;0.0;36.0;42.49;-83.42;847.0;862.9278763116505;1.0;77.42;201.0;8 / 12;66508;2018-07-25 07:33:08:102
2.0;-10.0;-1.0;1.0;-10.0;-1.0;0.0;0.0;0.0;0.0;0.0;0.0;9.0;0.0;49.0;-13.0;318.0;81.0;-116.0;0.0;33.0;42.49;-83.42;845.0;862.9278763116505;1.0;77.42;165.0;8 / 12;67007;2018-07-25 07:33:08:601
1.0;-10.0;-1.0;1.0;-10.0;-1.0;0.0;0.0;0.0;0.0;0.0;0.0;3.0;0.0;49.0;-12.0;323.0;81.0;-122.0;0.0;36.0;42.49;-83.42;845.0;862.9278763116505;1.0;77.42;165.0;8 / 12;67507;2018-07-25 07:33:09:101
1.0;-10.0;-1.0;1.0;-10.0;-1.0;0.0;0.0;0.0;0.0;0.0;0.0;4.0;0.0;49.0;-13.0;323.0;81.0;-123.0;0.0;33.0;42.49;-83.42;846.0;862.9278763116505;1.0;77.42;165.0;9 / 12;68008;2018-07-25 07:33:09:602
2.0;-10.0;-1.0;1.0;-10.0;-1.0;0.0;0.0;0.0;0.0;0.0;0.0;2.0;0.0;49.0;-13.0;325.0;81.0;-125.0;0.0;34.0;42.49;-83.42;846.0;862.9278763116505;1.0;77.42;165.0;9 / 12;68507;2018-07-25 07:33:10:101
1.0;-10.0;-1.0;1.0;-10.0;-1.0;0.0;0.0;0.0;0.0;0.0;0.0;2.0;0.0;49.0;-13.0;325.0;81.0;-126.0;0.0;40.0;42.49;-83.42;;862.9278763116505;1.0;733.3;172.0;5 / 13;69008;2018-07-25 07:33:10:602
1.0;-10.0;-1.0;1.0;-10.0;-1.0;0.0;0.0;0.0;0.0;0.0;0.0;2.0;1.0;49.0;-13.0;330.0;82.0;-129.0;0.0;42.0;42.49;-83.42;;862.9278763116505;1.0;733.3;172.0;5 / 13;69508;2018-07-25 07:33:11:102
1.0;-10.0;-1.0;1.0;-10.0;-1.0;0.0;0.0;0.0;0.0;0.0;0.0;0.0;2.0;50.0;-13.0;333.0;82.0;-130.0;0.0;38.0;42.49;-83.42;;862.9278763116505;1.0;733.3;172.0;0 / 10;70008;2018-07-25 07:33:11:602
1.0;-10.0;-1.0;1.0;-10.0;-1.0;0.0;0.0;0.0;0.0;0.0;0.0;0.0;2.0;49.0;-13.0;332.0;82.0;-130.0;0.0;35.0;42.49;-83.42;;862.9278763116505;1.0;733.3;172.0;0 / 10;70508;2018-07-25 07:33:12:102
1.0;-10.0;0.0;1.0;-10.0;-1.0;0.0;0.0;0.0;0.0;0.0;0.0;0.0;1.0;48.0;-14.0;319.0;83.0;-119.0;0.0;39.0;42.49;-83.42;;862.9278763116505;1.0;733.3;172.0;0 / 8;71007;2018-07-25 07:33:12:601
1.0;-10.0;0.0;1.0;-10.0;-1.0;-1.0;0.0;1.0;0.0;0.0;0.0;0.0;1.0;49.0;-14.0;321.0;82.0;-119.0;0.0;37.0;42.49;-83.42;;862.9278763116505;1.0;733.3;172.0;0 / 8;71507;2018-07-25 07:33:13:101
1.0;-10.0;-1.0;1.0;-10.0;-1.0;-1.0;0.0;0.0;0.0;0.0;0.0;3.0;1.0;49.0;-14.0;323.0;82.0;-122.0;0.0;39.0;42.49;-83.42;;862.9278763116505;1.0;733.3;172.0;5 / 12;72007;2018-07-25 07:33:13:601
1.0;-10.0;-1.0;1.0;-10.0;0.0;0.0;0.0;-1.0;0.0;-1.0;0.0;3.0;1.0;49.0;-15.0;312.0;83.0;-111.0;0.0;43.0;42.49;-83.42;;862.9278763116505;1.0;733.3;172.0;5 / 12;72508;2018-07-25 07:33:14:102
2.0;-9.0;0.0;1.0;-10.0;-1.0;1.0;0.0;0.0;0.0;0.0;0.0;5.0;1.0;48.0;-13.0;325.0;83.0;-130.0;0.0;40.0;42.49;-83.42;;862.9278763116505;1.0;733.3;172.0;5 / 11;73008;2018-07-25 07:33:14:602
1.0;-10.0;0.0;1.0;-10.0;-1.0;0.0;0.0;0.0;0.0;0.0;0.0;5.0;-1.0;49.0;-14.0;322.0;83.0;-132.0;0.0;41.0;42.49;-83.42;;862.9278763116505;1.0;733.3;172.0;5 / 11;73508;2018-07-25 07:33:15:102
-1.0;-10.0;0.0;1.0;-10.0;-1.0;-2.0;0.0;1.0;0.0;-1.0;0.0;3.0;-2.0;48.0;-15.0;312.0;83.0;-124.0;0.0;40.0;42.49;-83.42;;862.9278763116505;1.0;733.3;172.0;6 / 8;74007;2018-07-25 07:33:15:601
-1.0;-12.0;1.0;2.0;-10.0;-1.0;-2.0;-2.0;1.0;0.0;0.0;0.0;5.0;-3.0;48.0;-13.0;317.0;79.0;-120.0;0.0;40.0;42.49;-83.42;;862.9278763116505;1.0;733.3;172.0;6 / 8;74508;2018-07-25 07:33:16:102
1.0;-9.0;4.0;1.0;-10.0;1.0;1.0;1.0;1.0;0.0;-1.0;0.0;2.0;5.0;46.0;-20.0;245.0;81.0;-32.0;0.0;39.0;42.49;-83.42;;862.9278763116505;1.0;733.3;172.0;6 / 8;75008;2018-07-25 07:33:16:602
1.0;-8.0;1.0;1.0;-10.0;1.0;0.0;0.0;0.0;-1.0;0.0;0.0;2.0;1.0;45.0;-21.0;234.0;81.0;-32.0;0.0;40.0;42.49;-83.42;;862.9278763116505;1.0;733.3;172.0;6 / 8;75507;2018-07-25 07:33:17:101
1.0;-10.0;0.0;1.0;-10.0;-1.0;0.0;0.0;0.0;0.0;0.0;0.0;2.0;0.0;47.0;-13.0;314.0;84.0;-117.0;0.0;43.0;42.49;-83.42;;862.9278763116505;1.0;733.3;172.0;6 / 8;76008;2018-07-25 07:33:17:602
1.0;-10.0;-1.0;1.0;-10.0;-1.0;0.0;0.0;0.0;0.0;1.0;0.0;2.0;2.0;48.0;-11.0;340.0;84.0;-140.0;0.0;41.0;42.49;-83.42;;862.9278763116505;1.0;733.3;172.0;6 / 8;76508;2018-07-25 07:33:18:102
2.0;-10.0;-1.0;1.0;-10.0;-1.0;1.0;0.0;0.0;0.0;0.0;0.0;2.0;5.0;47.0;-9.0;335.0;81.0;-110.0;0.0;36.0;42.49;-83.42;;862.9278763116505;1.0;733.3;172.0;6 / 7;77008;2018-07-25 07:33:18:602
2.0;-9.0;0.0;2.0;-10.0;1.0;0.0;1.0;-1.0;0.0;0.0;0.0;2.0;6.0;48.0;-9.0;321.0;78.0;-71.0;0.0;35.0;42.49;-83.42;;862.9278763116505;1.0;733.3;172.0;6 / 7;77508;2018-07-25 07:33:19:102
1.0;-10.0;-1.0;1.0;-10.0;-1.0;-1.0;0.0;0.0;0.0;-1.0;0.0;2.0;10.0;49.0;-4.0;0.0;81.0;-112.0;0.0;41.0;42.49;-83.42;;862.9278763116505;1.0;733.3;172.0;9 / 10;78007;2018-07-25 07:33:19:601
1.0;-10.0;-1.0;1.0;-10.0;-1.0;0.0;0.0;0.0;0.0;0.0;0.0;2.0;12.0;49.0;-4.0;25.0;84.0;-143.0;0.0;41.0;42.49;-83.42;;862.9278763116505;1.0;733.3;172.0;9 / 10;78508;2018-07-25 07:33:20:102
1.0;-10.0;-1.0;1.0;-10.0;-1.0;0.0;0.0;0.0;0.0;0.0;0.0;3.0;11.0;48.0;-6.0;19.0;85.0;-144.0;0.0;33.0;42.49;-83.42;;862.9278763116505;1.0;733.3;172.0;9 / 11;79007;2018-07-25 07:33:20:601
1.0;-10.0;0.0;1.0;-10.0;-1.0;0.0;0.0;0.0;0.0;0.0;0.0;3.0;11.0;49.0;-5.0;20.0;84.0;-143.0;0.0;34.0;42.49;-83.42;;862.9278763116505;1.0;733.3;172.0;9 / 11;79507;2018-07-25 07:33:21:101
1.0;-10.0;-1.0;1.0;-10.0;-1.0;0.0;0.0;0.0;0.0;0.0;0.0;0.0;12.0;49.0;-6.0;20.0;85.0;-143.0;0.0;39.0;42.49;-83.42;;862.9278763116505;1.0;733.3;172.0;5 / 11;80008;2018-07-25 07:33:21:602
1.0;-10.0;-1.0;0.0;-10.0;-1.0;0.0;0.0;0.0;0.0;0.0;0.0;0.0;12.0;48.0;-6.0;20.0;85.0;-142.0;0.0;37.0;42.49;-83.42;;862.9278763116505;1.0;733.3;172.0;5 / 11;80507;2018-07-25 07:33:22:101
1.0;-10.0;0.0;1.0;-10.0;-1.0;1.0;0.0;0.0;0.0;1.0;0.0;0.0;12.0;48.0;-7.0;12.0;86.0;-135.0;0.0;35.0;42.49;-83.42;;862.9278763116505;1.0;733.3;172.0;5 / 12;81007;2018-07-25 07:33:22:601
1.0;-10.0;-1.0;1.0;-10.0;0.0;0.0;0.0;0.0;0.0;1.0;0.0;0.0;12.0;48.0;-7.0;0.0;85.0;-121.0;0.0;33.0;42.49;-83.42;;862.9278763116505;1.0;733.3;172.0;5 / 12;81508;2018-07-25 07:33:23:102
1.0;-10.0;0.0;1.0;-10.0;0.0;0.0;0.0;0.0;0.0;0.0;0.0;0.0;9.0;49.0;-7.0;343.0;83.0;-102.0;0.0;34.0;42.49;-83.42;;862.9278763116505;1.0;733.3;172.0;5 / 11;82007;2018-07-25 07:33:23:601
2.0;-10.0;0.0;1.0;-10.0;0.0;1.0;0.0;1.0;0.0;0.0;0.0;0.0;9.0;49.0;-4.0;354.0;81.0;-104.0;0.0;36.0;42.49;-83.42;;862.9278763116505;1.0;733.3;172.0;5 / 11;82507;2018-07-25 07:33:24:101
2.0;-10.0;0.0;1.0;-10.0;-1.0;0.0;0.0;0.0;0.0;0.0;0.0;0.0;8.0;49.0;-3.0;360.0;81.0;-110.0;0.0;36.0;42.49;-83.42;;862.9278763116505;1.0;733.3;172.0;5 / 12;83008;2018-07-25 07:33:24:602
1.0;-10.0;-1.0;1.0;-10.0;-1.0;0.0;0.0;0.0;0.0;0.0;0.0;0.0;9.0;49.0;-4.0;3.0;82.0;-119.0;0.0;32.0;42.49;-83.42;;862.9278763116505;1.0;733.3;172.0;5 / 12;83508;2018-07-25 07:33:25:102
1.0;-10.0;-1.0;1.0;-10.0;-1.0;0.0;0.0;0.0;0.0;0.0;0.0;0.0;9.0;49.0;-5.0;2.0;83.0;-122.0;0.0;47.0;42.49;-83.42;;862.9278763116505;1.0;733.3;172.0;0 / 8;84007;2018-07-25 07:33:25:601
1.0;-10.0;0.0;1.0;-10.0;-1.0;0.0;0.0;0.0;0.0;0.0;0.0;0.0;10.0;49.0;-3.0;8.0;82.0;-120.0;0.0;33.0;42.49;-83.42;;862.9278763116505;1.0;733.3;172.0;0 / 8;84508;2018-07-25 07:33:26:102
2.0;-10.0;0.0;1.0;-10.0;-1.0;0.0;0.0;0.0;0.0;0.0;0.0;0.0;10.0;50.0;0.0;15.0;81.0;-117.0;0.0;34.0;42.49;-83.42;;862.9278763116505;1.0;733.3;172.0;5 / 11;85007;2018-07-25 07:33:26:601
2.0;-10.0;0.0;1.0;-10.0;-1.0;0.0;0.0;1.0;0.0;0.0;0.0;0.0;9.0;49.0;-1.0;13.0;81.0;-120.0;0.0;34.0;42.49;-83.42;;862.9278763116505;1.0;733.3;172.0;5 / 11;85508;2018-07-25 07:33:27:102
1.0;-10.0;0.0;1.0;-10.0;-1.0;0.0;0.0;0.0;0.0;0.0;0.0;0.0;10.0;49.0;0.0;12.0;81.0;-112.0;0.0;41.0;42.49;-83.42;;862.9278763116505;1.0;733.3;172.0;9 / 11;86008;2018-07-25 07:33:27:602
2.0;-10.0;-1.0;1.0;-10.0;0.0;1.0;0.0;0.0;0.0;0.0;0.0;0.0;10.0;49.0;0.0;11.0;81.0;-109.0;0.0;35.0;42.49;-83.42;;862.9278763116505;1.0;733.3;172.0;9 / 11;86507;2018-07-25 07:33:28:101
2.0;-10.0;-1.0;1.0;-10.0;0.0;0.0;0.0;0.0;0.0;0.0;0.0;1.0;11.0;49.0;-2.0;5.0;82.0;-109.0;0.0;45.0;42.49;-83.42;;862.9278763116505;1.0;733.3;172.0;5 / 8;87008;2018-07-25 07:33:28:602
1.0;-10.0;-1.0;1.0;-10.0;-1.0;0.0;0.0;0.0;0.0;0.0;0.0;1.0;11.0;49.0;-4.0;9.0;83.0;-124.0;0.0;34.0;42.49;-83.42;;862.9278763116505;1.0;733.3;172.0;5 / 8;87508;2018-07-25 07:33:29:102
1.0;-10.0;0.0;1.0;-10.0;-1.0;0.0;0.0;0.0;0.0;0.0;0.0;1.0;11.0;49.0;-6.0;14.0;85.0;-138.0;0.0;34.0;42.49;-83.42;;862.9278763116505;1.0;733.3;172.0;5 / 8;88008;2018-07-25 07:33:29:602
1.0;-10.0;-1.0;1.0;-10.0;0.0;0.0;0.0;0.0;0.0;1.0;0.0;1.0;12.0;49.0;-6.0;8.0;86.0;-126.0;0.0;34.0;42.49;-83.42;;862.9278763116505;1.0;733.3;172.0;5 / 8;88507;2018-07-25 07:33:30:101
2.0;-10.0;0.0;1.0;-10.0;0.0;1.0;0.0;-1.0;0.0;2.0;0.0;1.0;9.0;49.0;-1.0;9.0;82.0;-111.0;0.0;36.0;42.49;-83.42;;862.9278763116505;1.0;733.3;172.0;5 / 11;89007;2018-07-25 07:33:30:601
2.0;-10.0;1.0;2.0;-10.0;0.0;1.0;0.0;1.0;0.0;1.0;0.0;0.0;8.0;49.0;-1.0;352.0;80.0;-80.0;0.0;33.0;42.49;-83.42;;862.9278763116505;1.0;733.3;172.0;5 / 11;89508;2018-07-25 07:33:31:102
2.0;-10.0;1.0;2.0;-10.0;0.0;0.0;0.0;0.0;0.0;0.0;0.0;0.0;6.0;49.0;0.0;357.0;78.0;-81.0;0.0;35.0;42.49;-83.42;;862.9278763116505;1.0;733.3;172.0;5 / 11;90008;2018-07-25 07:33:31:602
2.0;-9.0;0.0;2.0;-10.0;0.0;0.0;0.0;0.0;0.0;0.0;0.0;0.0;5.0;49.0;0.0;358.0;77.0;-83.0;0.0;35.0;42.49;-83.42;;862.9278763116505;1.0;733.3;172.0;5 / 11;90507;2018-07-25 07:33:32:101
2.0;-9.0;1.0;2.0;-10.0;0.0;0.0;0.0;0.0;0.0;0.0;0.0;0.0;5.0;49.0;1.0;2.0;77.0;-84.0;0.0;35.0;42.49;-83.42;;862.9278763116505;1.0;733.3;172.0;5 / 7;91007;2018-07-25 07:33:32:601
2.0;-10.0;0.0;2.0;-10.0;0.0;0.0;0.0;0.0;0.0;0.0;0.0;0.0;5.0;48.0;1.0;2.0;77.0;-86.0;0.0;35.0;42.49;-83.42;;862.9278763116505;1.0;733.3;172.0;5 / 7;91507;2018-07-25 07:33:33:101
2.0;-10.0;0.0;2.0;-10.0;0.0;0.0;0.0;0.0;0.0;0.0;0.0;0.0;6.0;48.0;2.0;8.0;78.0;-92.0;0.0;37.0;42.49;-83.42;;862.9278763116505;1.0;733.3;172.0;5 / 9;92008;2018-07-25 07:33:33:602
2.0;-9.0;0.0;2.0;-10.0;0.0;0.0;0.0;0.0;0.0;0.0;0.0;0.0;6.0;49.0;2.0;10.0;78.0;-96.0;0.0;39.0;42.49;-83.42;;862.9278763116505;1.0;733.3;172.0;5 / 9;92508;2018-07-25 07:33:34:102
2.0;-10.0;0.0;2.0;-10.0;0.0;0.0;0.0;0.0;0.0;0.0;0.0;0.0;7.0;49.0;2.0;9.0;79.0;-96.0;0.0;40.0;42.49;-83.42;;862.9278763116505;1.0;733.3;172.0;8 / 9;93008;2018-07-25 07:33:34:602
2.0;-10.0;0.0;2.0;-10.0;0.0;0.0;0.0;0.0;0.0;0.0;0.0;0.0;8.0;49.0;1.0;6.0;80.0;-94.0;0.0;32.0;42.49;-83.42;;862.9278763116505;1.0;733.3;172.0;8 / 9;93508;2018-07-25 07:33:35:102
1.0;-10.0;0.0;1.0;-10.0;0.0;0.0;0.0;0.0;0.0;0.0;0.0;0.0;9.0;48.0;2.0;8.0;81.0;-92.0;0.0;32.0;42.49;-83.42;;862.9278763116505;1.0;733.3;172.0;5 / 9;94008;2018-07-25 07:33:35:602
2.0;-10.0;0.0;1.0;-10.0;0.0;0.0;0.0;0.0;0.0;0.0;0.0;0.0;9.0;49.0;2.0;10.0;82.0;-95.0;0.0;36.0;42.49;-83.42;;862.9278763116505;1.0;733.3;172.0;5 / 9;94507;2018-07-25 07:33:36:101
2.0;-10.0;0.0;2.0;-10.0;0.0;0.0;0.0;0.0;0.0;0.0;0.0;0.0;9.0;49.0;2.0;8.0;81.0;-92.0;0.0;34.0;42.49;-83.42;;862.9278763116505;1.0;733.3;172.0;0 / 5;95007;2018-07-25 07:33:36:601
2.0;-10.0;0.0;2.0;-10.0;0.0;0.0;0.0;0.0;0.0;0.0;0.0;0.0;8.0;49.0;0.0;357.0;80.0;-85.0;0.0;38.0;42.49;-83.42;;862.9278763116505;1.0;733.3;172.0;0 / 5;95508;2018-07-25 07:33:37:102
2.0;-10.0;1.0;2.0;-10.0;0.0;0.0;0.0;0.0;0.0;0.0;0.0;0.0;8.0;48.0;0.0;354.0;79.0;-78.0;0.0;37.0;42.49;-83.42;;862.9278763116505;1.0;733.3;172.0;0 / 6;96008;2018-07-25 07:33:37:602
2.0;-10.0;1.0;2.0;-10.0;1.0;0.0;0.0;0.0;0.0;0.0;0.0;0.0;9.0;49.0;0.0;349.0;80.0;-69.0;0.0;34.0;42.49;-83.42;;862.9278763116505;1.0;733.3;172.0;0 / 6;96508;2018-07-25 07:33:38:102
2.0;-10.0;1.0;2.0;-10.0;1.0;0.0;0.0;0.0;0.0;0.0;0.0;2.0;8.0;49.0;-1.0;342.0;80.0;-60.0;0.0;33.0;42.49;-83.42;;862.9278763116505;1.0;733.3;172.0;5 / 10;97007;2018-07-25 07:33:38:601
2.0;-9.0;2.0;2.0;-10.0;1.0;0.0;0.0;0.0;0.0;-1.0;0.0;0.0;7.0;50.0;-2.0;338.0;78.0;-54.0;0.0;36.0;42.49;-83.42;;862.9278763116505;1.0;733.3;172.0;5 / 10;97507;2018-07-25 07:33:39:101
2.0;-10.0;1.0;1.0;-10.0;-1.0;1.0;0.0;2.0;0.0;0.0;0.0;0.0;11.0;48.0;4.0;33.0;81.0;-122.0;0.0;35.0;42.49;-83.42;;862.9278763116505;1.0;733.3;172.0;5 / 10;98007;2018-07-25 07:33:39:601
1.0;-10.0;-1.0;1.0;-10.0;-1.0;0.0;0.0;0.0;0.0;0.0;0.0;0.0;12.0;48.0;1.0;23.0;83.0;-120.0;0.0;40.0;42.49;-83.42;;862.9278763116505;1.0;733.3;172.0;5 / 10;98508;2018-07-25 07:33:40:102
1.0;-10.0;-1.0;1.0;-10.0;0.0;0.0;0.0;-1.0;0.0;0.0;0.0;0.0;11.0;48.0;1.0;12.0;83.0;-102.0;0.0;42.0;42.49;-83.42;;862.9278763116505;1.0;733.3;172.0;5 / 10;99007;2018-07-25 07:33:40:601
3.0;-10.0;-1.0;2.0;-10.0;0.0;1.0;0.0;-1.0;-1.0;1.0;0.0;0.0;8.0;49.0;-2.0;357.0;80.0;-99.0;0.0;44.0;42.49;-83.42;;862.9278763116505;1.0;733.3;172.0;5 / 10;99507;2018-07-25 07:33:41:101
2.0;-10.0;0.0;2.0;-10.0;0.0;0.0;0.0;0.0;0.0;0.0;0.0;0.0;7.0;49.0;-3.0;348.0;79.0;-87.0;0.0;34.0;42.49;-83.42;;862.9278763116505;1.0;733.3;172.0;5 / 10;100007;2018-07-25 07:33:41:601
1.0;-9.0;0.0;1.0;-10.0;0.0;-1.0;0.0;0.0;0.0;-1.0;0.0;0.0;9.0;49.0;-2.0;359.0;81.0;-100.0;0.0;37.0;42.49;-83.42;;862.9278763116505;1.0;733.3;172.0;5 / 10;100507;2018-07-25 07:33:42:101
0.0;-10.0;0.0;1.0;-10.0;-1.0;0.0;0.0;0.0;0.0;0.0;0.0;0.0;10.0;47.0;-6.0;8.0;85.0;-132.0;0.0;36.0;42.49;-83.42;;862.9278763116505;1.0;733.3;172.0;5 / 10;101008;2018-07-25 07:33:42:602
-1.0;-11.0;0.0;1.0;-10.0;0.0;-3.0;0.0;0.0;0.0;-1.0;0.0;0.0;2.0;47.0;-12.0;323.0;82.0;-109.0;0.0;35.0;42.49;-83.42;;862.9278763116505;1.0;733.3;172.0;5 / 10;101508;2018-07-25 07:33:43:102
-1.0;-10.0;0.0;1.0;-9.0;2.0;-2.0;-1.0;0.0;0.0;0.0;1.0;0.0;-4.0;43.0;-27.0;220.0;74.0;-31.0;0.0;41.0;42.49;-83.42;;862.9278763116505;1.0;733.3;172.0;5 / 10;102007;2018-07-25 07:33:43:601
-2.0;-11.0;-2.0;1.0;-10.0;2.0;-3.0;-1.0;-3.0;1.0;-2.0;0.0;0.0;-14.0;42.0;-23.0;193.0;76.0;-39.0;0.0;45.0;42.49;-83.42;;862.9278763116505;1.0;733.3;172.0;5 / 10;102507;2018-07-25 07:33:44:101
1.0;-10.0;-1.0;1.0;-10.0;-1.0;0.0;0.0;0.0;0.0;2.0;0.0;0.0;-17.0;46.0;-11.0;254.0;81.0;-111.0;0.0;35.0;42.49;-83.42;;862.9278763116505;1.0;733.3;172.0;5 / 9;103008;2018-07-25 07:33:44:602
1.0;-9.0;1.0;1.0;-9.0;3.0;0.0;1.0;-2.0;0.0;-2.0;0.0;6.0;-13.0;41.0;-26.0;170.0;74.0;-21.0;0.0;39.0;42.49;-83.42;;862.9278763116505;1.0;733.3;172.0;5 / 9;103508;2018-07-25 07:33:45:102
2.0;-9.0;1.0;2.0;-9.0;2.0;0.0;0.0;-1.0;-1.0;-1.0;0.0;6.0;-20.0;42.0;-19.0;168.0;75.0;-38.0;0.0;41.0;42.49;-83.42;;862.9278763116505;1.0;733.3;172.0;5 / 10;104008;2018-07-25 07:33:45:602
1.0;-10.0;0.0;2.0;-10.0;0.0;0.0;0.0;0.0;0.0;0.0;0.0;10.0;-22.0;44.0;-6.0;223.0;81.0;-105.0;0.0;35.0;42.49;-83.42;;862.9278763116505;1.0;733.3;172.0;5 / 10;104507;2018-07-25 07:33:46:101
1.0;-10.0;0.0;1.0;-10.0;-1.0;0.0;0.0;0.0;0.0;-1.0;0.0;3.0;-20.0;45.0;-4.0;235.0;82.0;-119.0;0.0;34.0;42.49;-83.42;;862.9278763116505;1.0;733.3;172.0;0 / 7;105008;2018-07-25 07:33:46:602
1.0;-10.0;0.0;1.0;-10.0;-1.0;0.0;0.0;0.0;0.0;0.0;0.0;3.0;-20.0;45.0;-3.0;235.0;84.0;-124.0;0.0;47.0;42.49;-83.42;;862.9278763116505;1.0;733.3;172.0;0 / 7;105507;2018-07-25 07:33:47:101
1.0;-10.0;0.0;1.0;-10.0;-1.0;0.0;0.0;0.0;0.0;0.0;0.0;3.0;-20.0;44.0;-2.0;231.0;84.0;-125.0;0.0;35.0;42.49;-83.42;;862.9278763116505;1.0;733.3;172.0;5 / 11;106007;2018-07-25 07:33:47:601
1.0;-10.0;-1.0;1.0;-10.0;-1.0;0.0;0.0;0.0;0.0;0.0;0.0;0.0;-20.0;45.0;-3.0;233.0;85.0;-126.0;0.0;35.0;42.49;-83.42;;862.9278763116505;1.0;733.3;172.0;5 / 11;106507;2018-07-25 07:33:48:101
1.0;-10.0;-1.0;1.0;-10.0;-1.0;0.0;0.0;0.0;0.0;0.0;0.0;0.0;-20.0;45.0;-4.0;241.0;84.0;-131.0;0.0;33.0;42.49;-83.42;;862.9278763116505;1.0;733.3;172.0;0 / 8;107007;2018-07-25 07:33:48:601
1.0;-10.0;-1.0;1.0;-10.0;-1.0;0.0;0.0;0.0;0.0;0.0;0.0;0.0;-20.0;45.0;-3.0;251.0;84.0;-139.0;0.0;35.0;42.49;-83.42;;862.9278763116505;1.0;733.3;172.0;0 / 8;107508;2018-07-25 07:33:49:102
1.0;-10.0;-1.0;1.0;-10.0;-1.0;1.0;0.0;0.0;0.0;0.0;0.0;0.0;-19.0;45.0;-4.0;258.0;84.0;-143.0;0.0;33.0;42.49;-83.42;;862.9278763116505;1.0;733.3;172.0;6 / 7;108007;2018-07-25 07:33:49:601
0.0;-10.0;0.0;0.0;-10.0;-1.0;0.0;0.0;0.0;0.0;0.0;0.0;0.0;-20.0;44.0;-2.0;245.0;85.0;-140.0;0.0;36.0;42.49;-83.42;;862.9278763116505;1.0;733.3;172.0;6 / 7;108508;2018-07-25 07:33:50:102
0.0;-10.0;1.0;0.0;-10.0;-1.0;-1.0;0.0;2.0;0.0;-1.0;0.0;0.0;-18.0;45.0;6.0;232.0;87.0;-154.0;0.0;35.0;42.49;-83.42;;862.9278763116505;1.0;733.3;172.0;7 / 8;109007;2018-07-25 07:33:50:601
1.0;-11.0;5.0;1.0;-10.0;0.0;2.0;-2.0;5.0;1.0;-2.0;0.0;0.0;-17.0;43.0;15.0;141.0;81.0;-104.0;0.0;36.0;42.49;-83.42;;862.9278763116505;1.0;733.3;172.0;7 / 8;109507;2018-07-25 07:33:51:101
-1.0;-9.0;2.0;0.0;-9.0;3.0;0.0;1.0;0.0;-1.0;-1.0;0.0;0.0;-3.0;49.0;4.0;9.0;74.0;2.0;0.0;41.0;42.49;-83.42;;862.9278763116505;1.0;733.3;172.0;7 / 8;110008;2018-07-25 07:33:51:602
0.0;-9.0;0.0;1.0;-10.0;0.0;-1.0;1.0;0.0;-1.0;-1.0;0.0;0.0;-4.0;46.0;18.0;68.0;84.0;-70.0;0.0;44.0;42.49;-83.42;;862.9278763116505;1.0;733.3;172.0;7 / 8;110508;2018-07-25 07:33:52:102
6.0;-13.0;-2.0;1.0;-10.0;1.0;6.0;-3.0;-3.0;1.0;5.0;0.0;5.0;-3.0;49.0;10.0;23.0;81.0;-23.0;0.0;35.0;42.49;-83.42;;862.9278763116505;1.0;733.3;172.0;7 / 8;111007;2018-07-25 07:33:52:601
4.0;-1.0;-7.0;0.0;-9.0;3.0;4.0;6.0;-7.0;-1.0;2.0;0.0;5.0;-3.0;50.0;2.0;11.0;73.0;-8.0;0.0;51.0;42.49;-83.42;;862.9278763116505;1.0;733.3;172.0;7 / 8;111508;2018-07-25 07:33:53:102
1.0;-12.0;1.0;1.0;-9.0;-2.0;0.0;-2.0;3.0;-1.0;3.0;0.0;8.0;-12.0;39.0;28.0;180.0;77.0;-157.0;0.0;43.0;42.49;-83.42;778.0;862.9278763116505;1.0;103.23;84.0;7 / 8;112007;2018-07-25 07:33:53:601
1.0;-6.0;2.0;0.0;-9.0;3.0;2.0;4.0;-2.0;-1.0;0.0;0.0;3.0;-14.0;47.0;-2.0;53.0;73.0;3.0;0.0;43.0;42.49;-83.42;778.0;863.3684186351546;1.0;103.23;84.0;7 / 8;112508;2018-07-25 07:33:54:102
1.0;-8.0;1.0;1.0;-10.0;-1.0;1.0;1.0;1.0;-1.0;1.0;0.0;3.0;-19.0;43.0;14.0;128.0;85.0;-80.0;0.0;41.0;42.49;-83.42;776.0;863.3684186351546;1.0;154.84;103.0;7 / 8;113008;2018-07-25 07:33:54:602
5.0;-11.0;4.0;0.0;-10.0;2.0;6.0;-2.0;1.0;1.0;1.0;0.0;6.0;-18.0;46.0;-4.0;80.0;79.0;-7.0;0.0;37.0;42.49;-83.42;776.0;863.3684186351546;1.0;154.84;103.0;7 / 8;113507;2018-07-25 07:33:55:101
4.0;-10.0;-6.0;0.0;-9.0;3.0;5.0;2.0;-8.0;-2.0;3.0;-2.0;3.0;-20.0;44.0;-10.0;83.0;73.0;0.0;0.0;50.0;42.49;-83.42;772.0;863.3684186351546;2.0;154.84;105.0;7 / 8;114008;2018-07-25 07:33:55:602
1.0;-15.0;0.0;1.0;-10.0;-1.0;-1.0;-4.0;3.0;4.0;-2.0;2.0;3.0;-23.0;42.0;-2.0;270.0;73.0;-150.0;0.0;44.0;42.49;-83.42;772.0;863.3684186351546;2.0;154.84;105.0;7 / 8;114508;2018-07-25 07:33:56:102
7.0;-23.0;7.0;0.0;-9.0;3.0;8.0;-10.0;5.0;0.0;0.0;0.0;4.0;-20.0;38.0;-14.0;95.0;72.0;-1.0;0.0;52.0;42.49;-83.42;767.0;863.3684186351546;2.0;154.84;109.0;6 / 8;115007;2018-07-25 07:33:56:601
-1.0;-14.0;-1.0;1.0;-9.0;-3.0;-3.0;-4.0;2.0;1.0;1.0;1.0;4.0;-24.0;34.0;7.0;262.0;69.0;-156.0;0.0;46.0;42.49;-83.42;767.0;863.3684186351546;2.0;154.84;109.0;6 / 8;115507;2018-07-25 07:33:57:101
3.0;-4.0;10.0;0.0;-9.0;3.0;0.0;4.0;4.0;1.0;2.0;1.0;7.0;-19.0;40.0;-9.0;87.0;71.0;-14.0;0.0;49.0;42.49;-83.42;762.0;863.3684186351546;3.0;154.84;114.0;6 / 8;116008;2018-07-25 07:33:57:602
-1.0;-12.0;4.0;2.0;-9.0;-3.0;-3.0;-2.0;7.0;1.0;2.0;1.0;7.0;-27.0;39.0;9.0;263.0;68.0;-158.0;0.0;52.0;42.49;-83.42;762.0;863.3684186351546;3.0;154.84;114.0;6 / 8;116508;2018-07-25 07:33:58:102
-4.0;-18.0;12.0;1.0;-9.0;2.0;-5.0;-8.0;9.0;0.0;-1.0;0.0;7.0;-24.0;40.0;-19.0;119.0;76.0;-9.0;0.0;45.0;42.49;-83.42;758.0;863.3684186351546;3.0;154.84;105.0;7 / 9;117008;2018-07-25 07:33:58:602
1.0;-11.0;1.0;1.0;-9.0;-3.0;0.0;-2.0;4.0;-1.0;-1.0;0.0;7.0;-29.0;40.0;5.0;262.0;72.0;-154.0;0.0;51.0;42.49;-83.42;758.0;863.3684186351546;3.0;154.84;105.0;7 / 9;117508;2018-07-25 07:33:59:102
6.0;-4.0;-3.0;0.0;-9.0;4.0;5.0;5.0;-6.0;-3.0;0.0;0.0;9.0;-27.0;37.0;-17.0;100.0;69.0;-5.0;0.0;48.0;42.49;-83.42;755.0;863.3684186351546;3.0;154.84;101.0;6 / 9;118008;2018-07-25 07:33:59:602
1.0;-9.0;-1.0;1.0;-10.0;-2.0;-1.0;1.0;1.0;0.0;-2.0;0.0;4.0;-29.0;36.0;10.0;216.0;78.0;-136.0;0.0;56.0;42.49;-83.42;755.0;863.3684186351546;3.0;154.84;101.0;6 / 9;118507;2018-07-25 07:34:00:101
4.0;-5.0;-3.0;0.0;-9.0;3.0;5.0;6.0;-7.0;-3.0;-1.0;-1.0;6.0;-25.0;36.0;-11.0;87.0;72.0;0.0;0.0;47.0;42.49;-83.42;;863.3684186351546;3.0;797.35;100.0;0 / 9;119007;2018-07-25 07:34:00:601
1.0;-9.0;1.0;1.0;-10.0;-2.0;0.0;1.0;3.0;0.0;0.0;0.0;6.0;-26.0;36.0;13.0;214.0;80.0;-143.0;0.0;40.0;42.49;-83.42;;863.3684186351546;3.0;797.35;100.0;0 / 9;119508;2018-07-25 07:34:01:102
4.0;-5.0;-2.0;0.0;-9.0;3.0;2.0;4.0;-5.0;0.0;-2.0;0.0;6.0;-21.0;43.0;-6.0;68.0;70.0;-2.0;0.0;44.0;42.49;-83.42;;863.3684186351546;3.0;797.35;100.0;5 / 12;120008;2018-07-25 07:34:01:602
1.0;-8.0;1.0;1.0;-10.0;0.0;-1.0;1.0;1.0;-2.0;-2.0;0.0;6.0;-21.0;40.0;17.0;126.0;83.0;-84.0;0.0;43.0;42.49;-83.42;;863.3684186351546;3.0;797.35;100.0;5 / 12;120507;2018-07-25 07:34:02:101
0.0;-7.0;-2.0;0.0;-9.0;3.0;1.0;3.0;-5.0;1.0;0.0;0.0;11.0;-18.0;46.0;-3.0;55.0;69.0;-3.0;0.0;45.0;42.49;-83.42;;863.3684186351546;4.0;1155.57;72.0;5 / 11;121007;2018-07-25 07:34:02:601
-1.0;-12.0;-3.0;1.0;-9.0;3.0;-2.0;-4.0;-5.0;0.0;0.0;0.0;11.0;-18.0;45.0;4.0;54.0;73.0;-13.0;0.0;46.0;42.49;-83.42;;863.3684186351546;4.0;1155.57;72.0;5 / 11;121508;2018-07-25 07:34:03:102
2.0;-12.0;7.0;1.0;-10.0;-1.0;1.0;-1.0;8.0;1.0;1.0;0.0;7.0;-21.0;39.0;19.0;187.0;80.0;-140.0;0.0;39.0;42.49;-83.42;;863.3684186351546;4.0;1155.57;72.0;5 / 11;122007;2018-07-25 07:34:03:601
0.0;-9.0;4.0;1.0;-9.0;3.0;-1.0;0.0;0.0;0.0;-1.0;0.0;7.0;-18.0;41.0;-4.0;84.0;73.0;-23.0;0.0;36.0;42.49;-83.42;;863.3684186351546;4.0;1155.57;72.0;5 / 11;122507;2018-07-25 07:34:04:101
0.0;-9.0;1.0;1.0;-10.0;0.0;0.0;1.0;0.0;-1.0;0.0;0.0;3.0;-13.0;40.0;9.0;99.0;81.0;-69.0;0.0;39.0;42.49;-83.42;753.0;863.3684186351546;5.0;154.84;11.0;6 / 8;123008;2018-07-25 07:34:04:602
0.0;-10.0;-1.0;0.0;-10.0;0.0;0.0;0.0;-2.0;0.0;-1.0;0.0;9.0;-6.0;40.0;10.0;67.0;86.0;-48.0;0.0;34.0;42.49;-83.42;753.0;863.3684186351546;5.0;154.84;11.0;6 / 8;123507;2018-07-25 07:34:05:101
-1.0;-10.0;0.0;0.0;-10.0;0.0;-1.0;0.0;0.0;0.0;-2.0;0.0;9.0;-3.0;42.0;12.0;48.0;87.0;-41.0;0.0;31.0;42.49;-83.42;;863.3684186351546;4.0;1340.93;348.0;5 / 13;124007;2018-07-25 07:34:05:601
0.0;-10.0;0.0;2.0;-10.0;1.0;-3.0;-1.0;-1.0;1.0;1.0;0.0;8.0;4.0;48.0;8.0;15.0;77.0;-60.0;0.0;35.0;42.49;-83.42;;863.3684186351546;4.0;1340.93;348.0;5 / 13;124508;2018-07-25 07:34:06:102
2.0;-9.0;4.0;2.0;-9.0;3.0;0.0;0.0;2.0;0.0;-1.0;0.0;6.0;14.0;48.0;-7.0;318.0;70.0;-31.0;0.0;39.0;42.49;-83.42;;863.3684186351546;4.0;1418.69;348.0;0 / 10;125007;2018-07-25 07:34:06:601
0.0;-10.0;1.0;2.0;-10.0;0.0;-1.0;-1.0;0.0;-2.0;0.0;0.0;0.0;16.0;50.0;0.0;357.0;80.0;-86.0;0.0;39.0;42.49;-83.42;;863.3684186351546;4.0;1418.69;348.0;0 / 10;125507;2018-07-25 07:34:07:101
0.0;-15.0;-4.0;2.0;-10.0;0.0;-2.0;-5.0;-4.0;2.0;5.0;0.0;3.0;9.0;48.0;-18.0;310.0;80.0;-85.0;0.0;43.0;42.49;-83.42;749.0;863.3684186351546;3.0;103.23;286.0;7 / 10;126008;2018-07-25 07:34:07:602
-2.0;-12.0;2.0;1.0;-10.0;1.0;-7.0;0.0;9.0;0.0;-2.0;0.0;3.0;-4.0;43.0;-26.0;238.0;79.0;-50.0;0.0;47.0;42.49;-83.42;749.0;863.3684186351546;3.0;103.23;286.0;7 / 10;126507;2018-07-25 07:34:08:101
1.0;-9.0;1.0;1.0;-10.0;-2.0;1.0;1.0;1.0;-1.0;-1.0;0.0;3.0;-18.0;46.0;-8.0;289.0;79.0;-150.0;0.0;37.0;42.49;-83.42;749.0;863.3684186351546;3.0;103.23;211.0;7 / 10;127007;2018-07-25 07:34:08:601
-4.0;-11.0;1.0;1.0;-9.0;3.0;-6.0;-2.0;0.0;2.0;-2.0;1.0;7.0;-19.0;35.0;-27.0;144.0;73.0;-11.0;0.0;43.0;42.49;-83.42;749.0;863.3684186351546;3.0;103.23;211.0;7 / 10;127508;2018-07-25 07:34:09:102
0.0;-16.0;-2.0;1.0;-10.0;1.0;-1.0;-7.0;-4.0;0.0;-2.0;-1.0;6.0;-26.0;38.0;-12.0;144.0;79.0;-39.0;0.0;49.0;42.49;-83.42;;863.3684186351546;3.0;1083.39;142.0;5 / 12;128007;2018-07-25 07:34:09:601
-2.0;-14.0;-3.0;2.0;-9.0;-2.0;-3.0;-5.0;-1.0;0.0;0.0;0.0;6.0;-27.0;37.0;12.0;226.0;75.0;-145.0;0.0;38.0;42.49;-83.42;;863.3684186351546;3.0;1083.39;142.0;5 / 12;128508;2018-07-25 07:34:10:102
2.0;-9.0;2.0;0.0;-9.0;3.0;1.0;1.0;-1.0;0.0;-2.0;0.0;11.0;-19.0;43.0;-6.0;71.0;72.0;-4.0;0.0;45.0;42.49;-83.42;;863.3684186351546;3.0;1083.39;142.0;5 / 13;129008;2018-07-25 07:34:10:602
0.0;-9.0;0.0;1.0;-10.0;0.0;-1.0;0.0;-1.0;0.0;1.0;1.0;5.0;-16.0;42.0;14.0;107.0;81.0;-77.0;0.0;44.0;42.49;-83.42;;863.3684186351546;3.0;1083.39;142.0;5 / 13;129508;2018-07-25 07:34:11:102
-2.0;-12.0;-1.0;1.0;-10.0;-1.0;-3.0;-3.0;-1.0;0.0;0.0;0.0;5.0;-11.0;41.0;21.0;138.0;81.0;-121.0;0.0;33.0;42.49;-83.42;;863.3684186351546;3.0;1083.39;142.0;5 / 13;130007;2018-07-25 07:34:11:601
0.0;-10.0;3.0;3.0;-9.0;2.0;-2.0;0.0;1.0;-1.0;1.0;0.0;0.0;-11.0;45.0;7.0;41.0;69.0;-45.0;0.0;43.0;42.49;-83.42;;863.3684186351546;3.0;1083.39;142.0;5 / 13;130507;2018-07-25 07:34:12:101
3.0;-10.0;-2.0;3.0;-9.0;3.0;-5.0;-1.0;-4.0;0.0;0.0;1.0;0.0;-9.0;45.0;4.0;34.0;68.0;-46.0;0.0;43.0;42.49;-83.42;;863.3684186351546;4.0;1497.53;317.0;5 / 13;131007;2018-07-25 07:34:12:601
2.0;-9.0;3.0;2.0;-9.0;3.0;0.0;0.0;0.0;0.0;0.0;0.0;0.0;-5.0;45.0;3.0;26.0;71.0;-32.0;0.0;42.0;42.49;-83.42;;863.3684186351546;4.0;1497.53;317.0;5 / 13;131507;2018-07-25 07:34:13:101
5.0;-18.0;3.0;2.0;-10.0;1.0;2.0;-6.0;1.0;-2.0;-1.0;0.0;2.0;-3.0;44.0;11.0;40.0;78.0;-55.0;0.0;31.0;42.49;-83.42;;863.3684186351546;4.0;1497.53;317.0;5 / 13;132007;2018-07-25 07:34:13:601
1.0;-10.0;0.0;1.0;-10.0;-1.0;0.0;0.0;0.0;1.0;1.0;0.0;5.0;0.0;41.0;17.0;110.0;83.0;-126.0;0.0;31.0;42.49;-83.42;;863.3684186351546;4.0;1497.53;317.0;5 / 13;132507;2018-07-25 07:34:14:101
0.0;-10.0;0.0;1.0;-10.0;-1.0;-1.0;0.0;1.0;0.0;0.0;0.0;5.0;0.0;42.0;17.0;110.0;83.0;-128.0;0.0;29.0;42.49;-83.42;;863.3684186351546;4.0;1497.53;317.0;0 / 10;133008;2018-07-25 07:34:14:602
2.0;-10.0;2.0;1.0;-9.0;2.0;1.0;0.0;0.0;-1.0;-1.0;0.0;4.0;-4.0;43.0;4.0;20.0;73.0;-28.0;0.0;41.0;42.49;-83.42;;863.3684186351546;4.0;1497.53;317.0;0 / 10;133507;2018-07-25 07:34:15:101
2.0;-9.0;1.0;2.0;-9.0;2.0;0.0;0.0;0.0;0.0;0.0;0.0;4.0;-7.0;42.0;5.0;41.0;74.0;-48.0;0.0;33.0;42.49;-83.42;;863.3684186351546;4.0;1497.53;317.0;5 / 12;134007;2018-07-25 07:34:15:601
1.0;-10.0;-1.0;2.0;-10.0;0.0;0.0;0.0;-1.0;0.0;0.0;0.0;2.0;-5.0;42.0;12.0;72.0;80.0;-81.0;0.0;32.0;42.49;-83.42;;863.3684186351546;4.0;1497.53;317.0;5 / 12;134507;2018-07-25 07:34:16:101
1.0;-10.0;-1.0;1.0;-10.0;0.0;0.0;0.0;-1.0;0.0;0.0;0.0;2.0;-6.0;41.0;13.0;97.0;82.0;-96.0;0.0;28.0;42.49;-83.42;;863.3684186351546;4.0;1497.53;317.0;0 / 9;135008;2018-07-25 07:34:16:602
2.0;-10.0;0.0;1.0;-10.0;0.0;0.0;0.0;0.0;0.0;0.0;0.0;2.0;-6.0;41.0;13.0;91.0;81.0;-93.0;0.0;27.0;42.49;-83.42;;863.3684186351546;4.0;1497.53;317.0;0 / 9;135508;2018-07-25 07:34:17:102
1.0;-10.0;0.0;2.0;-10.0;0.0;0.0;0.0;0.0;0.0;0.0;0.0;2.0;-7.0;41.0;15.0;107.0;81.0;-104.0;0.0;26.0;42.49;-83.42;;863.3684186351546;4.0;1497.53;317.0;0 / 10;136007;2018-07-25 07:34:17:601
2.0;-10.0;0.0;2.0;-10.0;0.0;0.0;0.0;0.0;0.0;0.0;0.0;0.0;-7.0;40.0;14.0;106.0;81.0;-103.0;0.0;26.0;42.49;-83.42;;863.3684186351546;4.0;1497.53;317.0;0 / 10;136507;2018-07-25 07:34:18:101
2.0;-10.0;0.0;2.0;-10.0;0.0;0.0;0.0;0.0;0.0;0.0;0.0;0.0;-7.0;40.0;15.0;107.0;81.0;-104.0;0.0;26.0;42.49;-83.42;;863.3684186351546;4.0;1497.53;317.0;5 / 13;137008;2018-07-25 07:34:18:602
2.0;-10.0;0.0;2.0;-10.0;0.0;0.0;0.0;0.0;0.0;0.0;0.0;0.0;-7.0;40.0;15.0;105.0;81.0;-103.0;0.0;26.0;42.49;-83.42;;863.3684186351546;4.0;1497.53;317.0;5 / 13;137508;2018-07-25 07:34:19:102
2.0;-10.0;0.0;2.0;-10.0;0.0;0.0;0.0;0.0;0.0;0.0;0.0;0.0;-7.0;41.0;14.0;105.0;81.0;-103.0;0.0;26.0;42.49;-83.42;;863.3684186351546;4.0;1497.53;317.0;5 / 13;138007;2018-07-25 07:34:19:601
2.0;-10.0;0.0;2.0;-10.0;0.0;0.0;0.0;0.0;0.0;0.0;0.0;0.0;-6.0;40.0;14.0;104.0;81.0;-101.0;0.0;26.0;42.49;-83.42;;863.3684186351546;4.0;1497.53;317.0;5 / 13;138507;2018-07-25 07:34:20:101
2.0;-10.0;0.0;2.0;-10.0;0.0;0.0;0.0;0.0;0.0;0.0;0.0;0.0;-7.0;41.0;14.0;102.0;81.0;-99.0;0.0;26.0;42.49;-83.42;;863.3684186351546;4.0;1497.53;317.0;0 / 10;139007;2018-07-25 07:34:20:601
2.0;-10.0;0.0;2.0;-10.0;0.0;0.0;0.0;0.0;0.0;0.0;0.0;0.0;-7.0;41.0;13.0;106.0;81.0;-98.0;0.0;25.0;42.49;-83.42;;863.3684186351546;4.0;1497.53;317.0;0 / 10;139507;2018-07-25 07:34:21:101
2.0;-10.0;0.0;2.0;-10.0;0.0;0.0;0.0;0.0;0.0;0.0;0.0;0.0;-7.0;41.0;14.0;101.0;81.0;-99.0;0.0;26.0;42.49;-83.42;;863.3684186351546;4.0;1497.53;317.0;5 / 13;140007;2018-07-25 07:34:21:601
2.0;-10.0;0.0;2.0;-10.0;0.0;0.0;0.0;0.0;0.0;0.0;0.0;0.0;-7.0;41.0;14.0;102.0;81.0;-99.0;0.0;25.0;42.49;-83.42;;863.3684186351546;4.0;1497.53;317.0;5 / 13;140508;2018-07-25 07:34:22:102
2.0;-10.0;0.0;2.0;-10.0;0.0;0.0;0.0;0.0;0.0;0.0;0.0;0.0;-7.0;41.0;14.0;102.0;81.0;-100.0;0.0;26.0;42.49;-83.42;;863.3684186351546;4.0;1497.53;317.0;5 / 13;141007;2018-07-25 07:34:22:601
2.0;-10.0;0.0;2.0;-10.0;0.0;0.0;0.0;0.0;0.0;0.0;0.0;0.0;-7.0;41.0;14.0;103.0;81.0;-100.0;0.0;26.0;42.49;-83.42;;863.3684186351546;4.0;1497.53;317.0;5 / 13;141508;2018-07-25 07:34:23:102
2.0;-10.0;0.0;2.0;-10.0;0.0;0.0;0.0;0.0;0.0;0.0;0.0;0.0;-7.0;41.0;14.0;103.0;81.0;-101.0;0.0;26.0;42.49;-83.42;;863.3684186351546;4.0;1497.53;317.0;5 / 12;142007;2018-07-25 07:34:23:601
2.0;-10.0;0.0;2.0;-10.0;0.0;0.0;0.0;0.0;0.0;0.0;0.0;0.0;-7.0;40.0;14.0;102.0;81.0;-99.0;0.0;26.0;42.49;-83.42;;863.3684186351546;4.0;1497.53;317.0;5 / 12;142507;2018-07-25 07:34:24:101
1.0;-10.0;0.0;2.0;-10.0;0.0;-1.0;0.0;0.0;0.0;0.0;0.0;0.0;-7.0;41.0;13.0;98.0;81.0;-95.0;0.0;26.0;42.49;-83.42;;863.3684186351546;4.0;1497.53;317.0;5 / 12;143007;2018-07-25 07:34:24:601
1.0;-10.0;0.0;1.0;-10.0;0.0;0.0;0.0;0.0;0.0;0.0;0.0;0.0;-7.0;41.0;13.0;95.0;81.0;-92.0;0.0;27.0;42.49;-83.42;;863.3684186351546;4.0;1497.53;317.0;5 / 12;143508;2018-07-25 07:34:25:102
2.0;-10.0;0.0;2.0;-10.0;0.0;0.0;0.0;0.0;0.0;0.0;0.0;0.0;-7.0;41.0;14.0;100.0;81.0;-98.0;0.0;27.0;42.49;-83.42;;863.3684186351546;4.0;1497.53;317.0;5 / 11;144008;2018-07-25 07:34:25:602
2.0;-10.0;0.0;2.0;-10.0;0.0;0.0;0.0;0.0;0.0;0.0;0.0;0.0;-7.0;41.0;14.0;101.0;81.0;-99.0;0.0;26.0;42.49;-83.42;;863.3684186351546;4.0;1497.53;317.0;5 / 11;144507;2018-07-25 07:34:26:101
2.0;-10.0;0.0;2.0;-10.0;0.0;0.0;0.0;0.0;0.0;0.0;0.0;0.0;-7.0;41.0;14.0;101.0;81.0;-99.0;0.0;27.0;42.49;-83.42;;863.3684186351546;4.0;1497.53;317.0;5 / 11;145008;2018-07-25 07:34:26:602
2.0;-10.0;0.0;1.0;-10.0;0.0;0.0;0.0;0.0;0.0;0.0;0.0;0.0;-7.0;41.0;14.0;101.0;81.0;-99.0;0.0;27.0;42.49;-83.42;;863.3684186351546;4.0;1497.53;317.0;5 / 11;145507;2018-07-25 07:34:27:101
1.0;-10.0;0.0;1.0;-10.0;0.0;0.0;0.0;0.0;0.0;-1.0;0.0;0.0;-4.0;42.0;13.0;86.0;83.0;-92.0;0.0;28.0;42.49;-83.42;;863.3684186351546;4.0;1497.53;317.0;5 / 10;146007;2018-07-25 07:34:27:601
1.0;-10.0;0.0;1.0;-10.0;2.0;-1.0;0.0;-1.0;0.0;1.0;0.0;0.0;-2.0;43.0;4.0;19.0;77.0;-39.0;0.0;34.0;42.49;-83.42;;863.3684186351546;4.0;1497.53;317.0;5 / 10;146507;2018-07-25 07:34:28:101
1.0;-9.0;2.0;1.0;-10.0;1.0;0.0;0.0;0.0;0.0;-1.0;0.0;0.0;-3.0;43.0;6.0;28.0;78.0;-44.0;0.0;29.0;42.49;-83.42;;863.3684186351546;4.0;1497.53;317.0;5 / 10;147008;2018-07-25 07:34:28:602
2.0;-10.0;1.0;1.0;-10.0;-1.0;1.0;0.0;1.0;-1.0;0.0;0.0;8.0;3.0;42.0;16.0;97.0;85.0;-124.0;0.0;32.0;42.49;-83.42;;863.3684186351546;4.0;1497.53;317.0;5 / 10;147507;2018-07-25 07:34:29:101
-1.0;-10.0;-1.0;1.0;-10.0;0.0;-1.0;0.0;-2.0;0.0;-2.0;0.0;8.0;8.0;45.0;8.0;18.0;86.0;-69.0;0.0;33.0;42.49;-83.42;;863.3684186351546;4.0;1497.53;317.0;0 / 7;148007;2018-07-25 07:34:29:601
-2.0;-10.0;0.0;2.0;-10.0;1.0;-2.0;-2.0;1.0;2.0;-2.0;0.0;8.0;7.0;46.0;-4.0;332.0;80.0;-62.0;0.0;30.0;42.49;-83.42;;863.3684186351546;4.0;1497.53;317.0;0 / 7;148507;2018-07-25 07:34:30:101
2.0;-10.0;1.0;2.0;-9.0;2.0;0.0;-1.0;-1.0;0.0;0.0;0.0;5.0;7.0;47.0;-11.0;305.0;75.0;-41.0;0.0;36.0;42.49;-83.42;;863.3684186351546;4.0;1497.53;317.0;5 / 10;149008;2018-07-25 07:34:30:602
1.0;-9.0;1.0;2.0;-10.0;2.0;-1.0;0.0;-1.0;0.0;0.0;0.0;5.0;7.0;47.0;-9.0;311.0;76.0;-44.0;0.0;31.0;42.49;-83.42;;863.3684186351546;4.0;1497.53;317.0;5 / 10;149508;2018-07-25 07:34:31:102
2.0;-9.0;2.0;2.0;-9.0;2.0;0.0;0.0;0.0;0.0;1.0;0.0;2.0;6.0;47.0;-9.0;313.0;75.0;-45.0;0.0;28.0;42.49;-83.42;;863.3684186351546;4.0;1497.53;317.0;5 / 10;150007;2018-07-25 07:34:31:601
4.0;-9.0;2.0;3.0;-9.0;2.0;-2.0;0.0;1.0;0.0;1.0;0.0;1.0;2.0;47.0;-9.0;318.0;72.0;-54.0;0.0;31.0;42.49;-83.42;;863.3684186351546;4.0;1497.53;317.0;5 / 10;150508;2018-07-25 07:34:32:102
-2.0;-13.0;-1.0;1.0;-9.0;3.0;-4.0;-3.0;-5.0;-1.0;1.0;1.0;4.0;12.0;45.0;-9.0;304.0;70.0;-13.0;0.0;46.0;42.49;-83.42;;863.3684186351546;4.0;1497.53;317.0;5 / 10;151007;2018-07-25 07:34:32:601
-8.0;-7.0;2.0;-6.0;-7.0;1.0;-2.0;1.0;-4.0;-1.0;-2.0;2.0;11.0;37.0;30.0;9.0;252.0;48.0;77.0;0.0;50.0;42.49;-83.42;;863.3684186351546;4.0;1497.53;317.0;5 / 10;151508;2018-07-25 07:34:33:102
-6.0;-1.0;11.0;-6.0;-3.0;7.0;-3.0;1.0;1.0;2.0;-2.0;1.0;11.0;35.0;7.0;-25.0;244.0;21.0;40.0;2.0;40.0;42.49;-83.42;;863.3684186351546;4.0;1497.53;317.0;5 / 9;152007;2018-07-25 07:34:33:601
1.0;6.0;5.0;2.0;6.0;7.0;-1.0;-1.0;-2.0;1.0;0.0;0.0;87.0;3.0;-36.0;-26.0;222.0;-41.0;-15.0;2.0;27.0;42.49;-83.42;;863.3684186351546;4.0;1497.53;317.0;5 / 9;152507;2018-07-25 07:34:34:101
2.0;6.0;8.0;2.0;6.0;7.0;0.0;0.0;0.0;0.0;0.0;0.0;124.0;3.0;-34.0;-28.0;225.0;-40.0;-16.0;2.0;25.0;42.49;-83.42;;863.3684186351546;4.0;1497.53;317.0;5 / 10;153008;2018-07-25 07:34:34:602
-3.0;4.0;5.0;2.0;6.0;7.0;-5.0;-2.0;-1.0;1.0;2.0;1.0;81.0;2.0;-37.0;-25.0;214.0;-36.0;-21.0;2.0;26.0;42.49;-83.42;;863.3684186351546;4.0;1497.53;317.0;5 / 10;153508;2018-07-25 07:34:35:102
5.0;5.0;13.0;3.0;5.0;7.0;-1.0;-1.0;3.0;-1.0;0.0;0.0;81.0;-6.0;-37.0;-26.0;199.0;-34.0;-25.0;2.0;54.0;42.49;-83.42;;863.3684186351546;4.0;1497.53;317.0;5 / 9;154008;2018-07-25 07:34:35:602
1.0;-1.0;15.0;-1.0;0.0;10.0;-3.0;-1.0;2.0;-2.0;2.0;2.0;52.0;14.0;-12.0;-38.0;216.0;1.0;5.0;2.0;26.0;42.49;-83.42;;863.3684186351546;4.0;1497.53;317.0;5 / 9;154508;2018-07-25 07:34:36:102
0.0;0.0;9.0;-1.0;0.0;10.0;1.0;0.0;-1.0;-1.0;-1.0;1.0;52.0;9.0;-17.0;-38.0;199.0;-1.0;5.0;2.0;27.0;42.49;-83.42;;863.3684186351546;4.0;1497.53;317.0;5 / 9;155008;2018-07-25 07:34:36:602
2.0;1.0;7.0;2.0;2.0;9.0;0.0;-1.0;-3.0;0.0;1.0;-2.0;12.0;-1.0;-23.0;-39.0;208.0;-10.0;-14.0;2.0;29.0;42.49;-83.42;;863.3684186351546;4.0;1497.53;317.0;5 / 9;155508;2018-07-25 07:34:37:102
-1.0;2.0;9.0;0.0;2.0;10.0;-1.0;0.0;0.0;1.0;0.0;0.0;6.0;15.0;-9.0;-40.0;262.0;-8.0;-2.0;2.0;25.0;42.49;-83.42;;863.3684186351546;4.0;1497.53;317.0;5 / 9;156007;2018-07-25 07:34:37:601
0.0;2.0;10.0;1.0;3.0;9.0;-1.0;0.0;1.0;0.0;0.0;0.0;6.0;15.0;-13.0;-39.0;261.0;-15.0;-4.0;2.0;25.0;42.49;-83.42;;863.3684186351546;4.0;1497.53;317.0;5 / 9;156507;2018-07-25 07:34:38:101
-1.0;1.0;8.0;0.0;3.0;9.0;-1.0;-2.0;-1.0;0.0;2.0;3.0;107.0;17.0;-17.0;-36.0;249.0;-16.0;-1.0;2.0;28.0;42.49;-83.42;;863.3684186351546;4.0;1497.53;317.0;5 / 9;157008;2018-07-25 07:34:38:602
3.0;2.0;13.0;2.0;2.0;10.0;1.0;1.0;3.0;-1.0;-1.0;-1.0;120.0;8.0;-18.0;-40.0;233.0;-12.0;-9.0;2.0;28.0;42.49;-83.42;;863.3684186351546;4.0;1497.53;317.0;5 / 9;157507;2018-07-25 07:34:39:101
0.0;4.0;9.0;1.0;4.0;9.0;-1.0;0.0;0.0;0.0;0.0;0.0;127.0;13.0;-20.0;-37.0;257.0;-23.0;-8.0;2.0;27.0;42.49;-83.42;;863.3684186351546;4.0;1497.53;317.0;5 / 9;158007;2018-07-25 07:34:39:601
1.0;4.0;9.0;1.0;4.0;9.0;0.0;0.0;0.0;0.0;0.0;0.0;130.0;13.0;-20.0;-38.0;256.0;-23.0;-8.0;2.0;25.0;42.49;-83.42;;863.3684186351546;4.0;1497.53;317.0;5 / 9;158507;2018-07-25 07:34:40:101
1.0;4.0;9.0;1.0;4.0;9.0;0.0;0.0;0.0;0.0;0.0;0.0;130.0;12.0;-21.0;-36.0;251.0;-23.0;-8.0;2.0;25.0;42.49;-83.42;;863.3684186351546;4.0;1497.53;317.0;0 / 7;159007;2018-07-25 07:34:40:601
1.0;4.0;9.0;1.0;4.0;9.0;0.0;0.0;0.0;0.0;0.0;0.0;112.0;12.0;-22.0;-37.0;246.0;-22.0;-8.0;2.0;24.0;42.49;-83.42;;863.3684186351546;4.0;1497.53;317.0;0 / 7;159507;2018-07-25 07:34:41:101
1.0;3.0;9.0;1.0;4.0;9.0;0.0;0.0;0.0;0.0;0.0;0.0;106.0;12.0;-21.0;-37.0;248.0;-21.0;-8.0;2.0;27.0;42.49;-83.42;;863.3684186351546;4.0;1497.53;317.0;0 / 6;160007;2018-07-25 07:34:41:601
1.0;4.0;10.0;1.0;3.0;9.0;0.0;0.0;1.0;0.0;0.0;0.0;105.0;13.0;-20.0;-38.0;249.0;-20.0;-9.0;2.0;24.0;42.49;-83.42;;863.3684186351546;4.0;1497.53;317.0;0 / 6;160507;2018-07-25 07:34:42:101
1.0;3.0;9.0;1.0;3.0;9.0;0.0;0.0;0.0;0.0;0.0;0.0;105.0;12.0;-20.0;-38.0;249.0;-20.0;-8.0;2.0;37.0;42.49;-83.42;;863.3684186351546;4.0;1497.53;317.0;0 / 6;161007;2018-07-25 07:34:42:601
2.0;3.0;9.0;2.0;3.0;9.0;0.0;0.0;0.0;0.0;0.0;1.0;118.0;8.0;-21.0;-39.0;249.0;-21.0;-15.0;2.0;25.0;42.49;-83.42;;863.3684186351546;4.0;1497.53;317.0;0 / 6;161507;2018-07-25 07:34:43:101
2.0;3.0;9.0;2.0;3.0;9.0;0.0;0.0;0.0;0.0;0.0;0.0;107.0;9.0;-20.0;-39.0;247.0;-19.0;-13.0;2.0;26.0;42.49;-83.42;;863.3684186351546;4.0;1497.53;317.0;0 / 6;162008;2018-07-25 07:34:43:602
1.0;3.0;10.0;2.0;3.0;9.0;0.0;0.0;0.0;0.0;0.0;0.0;102.0;10.0;-21.0;-38.0;243.0;-19.0;-10.0;2.0;25.0;42.49;-83.42;;863.3684186351546;4.0;1497.53;317.0;0 / 6;162508;2018-07-25 07:34:44:102
1.0;3.0;10.0;1.0;3.0;9.0;0.0;0.0;1.0;0.0;0.0;0.0;109.0;11.0;-19.0;-38.0;245.0;-17.0;-9.0;2.0;24.0;42.49;-83.42;;863.3684186351546;4.0;1497.53;317.0;0 / 7;163008;2018-07-25 07:34:44:602
1.0;3.0;9.0;1.0;3.0;9.0;0.0;0.0;0.0;0.0;0.0;0.0;109.0;11.0;-20.0;-38.0;247.0;-19.0;-9.0;2.0;25.0;42.49;-83.42;;863.3684186351546;4.0;1497.53;317.0;0 / 7;163508;2018-07-25 07:34:45:102
1.0;3.0;9.0;2.0;4.0;9.0;0.0;0.0;0.0;0.0;0.0;0.0;104.0;10.0;-21.0;-38.0;250.0;-22.0;-12.0;2.0;26.0;42.49;-83.42;;863.3684186351546;4.0;1497.53;317.0;0 / 7;164008;2018-07-25 07:34:45:602
2.0;4.0;9.0;2.0;4.0;9.0;0.0;0.0;0.0;0.0;0.0;0.0;114.0;9.0;-21.0;-38.0;251.0;-23.0;-13.0;2.0;39.0;42.49;-83.42;;863.3684186351546;4.0;1497.53;317.0;0 / 7;164508;2018-07-25 07:34:46:102
4.0;2.0;9.0;2.0;3.0;9.0;2.0;-1.0;0.0;0.0;0.0;-1.0;123.0;9.0;-12.0;-40.0;268.0;-17.0;-13.0;2.0;29.0;42.49;-83.42;;863.3684186351546;4.0;1497.53;317.0;0 / 7;165007;2018-07-25 07:34:46:601
1.0;3.0;10.0;3.0;4.0;9.0;-2.0;-1.0;1.0;0.0;-1.0;-1.0;123.0;3.0;-3.0;-39.0;307.0;-22.0;-17.0;2.0;31.0;42.49;-83.42;;863.3684186351546;4.0;1497.53;317.0;0 / 7;165507;2018-07-25 07:34:47:101
4.0;4.0;7.0;4.0;5.0;7.0;0.0;-1.0;0.0;0.0;0.0;0.0;119.0;-8.0;-3.0;-36.0;329.0;-31.0;-27.0;2.0;34.0;42.49;-83.42;;863.3684186351546;4.0;1497.53;317.0;0 / 7;166007;2018-07-25 07:34:47:601
3.0;5.0;9.0;3.0;4.0;9.0;0.0;2.0;0.0;-1.0;1.0;0.0;101.0;-1.0;-1.0;-37.0;327.0;-25.0;-19.0;2.0;36.0;42.49;-83.42;;863.3684186351546;4.0;1497.53;317.0;0 / 7;166507;2018-07-25 07:34:48:101
1.0;3.0;9.0;1.0;1.0;10.0;-1.0;2.0;-1.0;0.0;0.0;0.0;107.0;-1.0;13.0;-34.0;347.0;-6.0;-8.0;2.0;34.0;42.49;-83.42;;863.3684186351546;4.0;1497.53;317.0;0 / 7;167008;2018-07-25 07:34:48:602
2.0;1.0;9.0;1.0;1.0;10.0;1.0;0.0;-1.0;0.0;0.0;0.0;95.0;-6.0;19.0;-34.0;6.0;-5.0;-7.0;2.0;34.0;42.49;-83.42;;863.3684186351546;4.0;1497.53;317.0;0 / 7;167507;2018-07-25 07:34:49:101
1.0;1.0;8.0;1.0;3.0;9.0;1.0;-1.0;-1.0;0.0;0.0;-1.0;95.0;-13.0;11.0;-35.0;26.0;-16.0;-5.0;2.0;32.0;42.49;-83.42;;863.3684186351546;4.0;1497.53;317.0;0 / 7;168008;2018-07-25 07:34:49:602
6.0;1.0;8.0;3.0;4.0;8.0;2.0;-3.0;0.0;-2.0;-1.0;-2.0;211.0;-29.0;-4.0;-25.0;55.0;-25.0;-21.0;2.0;29.0;42.49;-83.42;;863.3684186351546;4.0;1497.53;317.0;0 / 7;168508;2018-07-25 07:34:50:102
8.0;1.0;-1.0;9.0;3.0;2.0;-1.0;-3.0;-2.0;-2.0;-6.0;0.0;442.0;-32.0;-6.0;13.0;78.0;-20.0;-78.0;2.0;38.0;42.49;-83.42;;863.3684186351546;4.0;1497.53;317.0;0 / 7;169007;2018-07-25 07:34:50:601
5.0;0.0;-4.0;7.0;1.0;-7.0;-2.0;-1.0;3.0;-1.0;0.0;1.0;29.0;10.0;-21.0;15.0;138.0;-5.0;-137.0;2.0;26.0;42.49;-83.42;;863.3684186351546;4.0;1497.53;317.0;0 / 7;169508;2018-07-25 07:34:51:102
8.0;-2.0;-5.0;7.0;0.0;-6.0;0.0;-2.0;1.0;0.0;-1.0;1.0;25.0;13.0;-34.0;18.0;147.0;2.0;-131.0;2.0;30.0;42.49;-83.42;;863.3684186351546;4.0;1497.53;317.0;0 / 7;170008;2018-07-25 07:34:51:602
7.0;0.0;-6.0;7.0;0.0;-7.0;0.0;0.0;0.0;0.0;0.0;0.0;25.0;13.0;-41.0;6.0;162.0;2.0;-133.0;2.0;48.0;42.49;-83.42;;863.3684186351546;4.0;1497.53;317.0;0 / 7;170507;2018-07-25 07:34:52:101
9.0;-3.0;-7.0;7.0;-1.0;-6.0;0.0;-2.0;0.0;0.0;1.0;0.0;23.0;6.0;-39.0;10.0;164.0;7.0;-131.0;2.0;32.0;42.49;-83.42;;863.3684186351546;4.0;1497.53;317.0;0 / 7;171007;2018-07-25 07:34:52:601
6.0;2.0;12.0;6.0;0.0;8.0;-1.0;1.0;4.0;0.0;2.0;-1.0;21.0;1.0;-15.0;-32.0;236.0;-3.0;-48.0;2.0;35.0;42.49;-83.42;;863.3684186351546;4.0;1497.53;317.0;0 / 7;171507;2018-07-25 07:34:53:101
2.0;5.0;5.0;2.0;6.0;8.0;1.0;-1.0;-2.0;3.0;-1.0;0.0;172.0;8.0;-28.0;-20.0;220.0;-33.0;-11.0;2.0;30.0;42.49;-83.42;;863.3684186351546;4.0;1497.53;317.0;0 / 7;172008;2018-07-25 07:34:53:602
0.0;9.0;-2.0;0.0;9.0;3.0;0.0;0.0;-5.0;1.0;0.0;0.0;172.0;14.0;-34.0;-5.0;242.0;-72.0;-8.0;2.0;31.0;42.49;-83.42;;863.3684186351546;4.0;1497.53;317.0;0 / 7;172507;2018-07-25 07:34:54:101
0.0;9.0;5.0;0.0;8.0;5.0;0.0;0.0;0.0;0.0;0.0;0.0;108.0;16.0;-26.0;-19.0;281.0;-60.0;1.0;2.0;33.0;42.49;-83.42;;863.3684186351546;4.0;1497.53;317.0;0 / 7;173008;2018-07-25 07:34:54:602
1.0;8.0;5.0;0.0;8.0;6.0;0.0;1.0;-2.0;1.0;0.0;0.0;106.0;14.0;-24.0;-23.0;283.0;-51.0;-3.0;2.0;35.0;42.49;-83.42;;863.3684186351546;4.0;1497.53;317.0;0 / 7;173507;2018-07-25 07:34:55:101
1.0;8.0;6.0;0.0;8.0;6.0;0.0;0.0;1.0;0.0;0.0;0.0;240.0;14.0;-25.0;-24.0;284.0;-54.0;-4.0;2.0;34.0;42.49;-83.42;;863.3684186351546;4.0;1497.53;317.0;0 / 7;174007;2018-07-25 07:34:55:601
0.0;6.0;11.0;4.0;8.0;5.0;-3.0;-2.0;6.0;2.0;0.0;2.0;172.0;-1.0;-31.0;-23.0;247.0;-50.0;-41.0;2.0;33.0;42.49;-83.42;;863.3684186351546;4.0;1497.53;317.0;0 / 7;174507;2018-07-25 07:34:56:101
2.0;5.0;8.0;2.0;5.0;8.0;0.0;0.0;0.0;0.0;0.0;0.0;172.0;8.0;-14.0;-35.0;282.0;-29.0;-14.0;2.0;37.0;42.49;-83.42;;863.3684186351546;4.0;1497.53;317.0;0 / 7;175008;2018-07-25 07:34:56:602
1.0;5.0;8.0;2.0;5.0;8.0;0.0;0.0;0.0;0.0;0.0;0.0;121.0;10.0;-15.0;-34.0;284.0;-32.0;-11.0;2.0;34.0;42.49;-83.42;;863.3684186351546;4.0;1497.53;317.0;0 / 7;175508;2018-07-25 07:34:57:102
1.0;5.0;9.0;1.0;5.0;8.0;0.0;0.0;0.0;0.0;0.0;0.0;384.0;12.0;-14.0;-33.0;281.0;-30.0;-8.0;2.0;37.0;42.49;-83.42;;863.3684186351546;4.0;1497.53;317.0;0 / 7;176007;2018-07-25 07:34:57:601
1.0;5.0;8.0;1.0;5.0;8.0;0.0;0.0;0.0;0.0;0.0;0.0;384.0;13.0;-17.0;-31.0;277.0;-34.0;-6.0;2.0;30.0;42.49;-83.42;;863.3684186351546;4.0;1497.53;317.0;0 / 7;176508;2018-07-25 07:34:58:102
1.0;5.0;8.0;1.0;5.0;8.0;0.0;0.0;0.0;0.0;0.0;0.0;311.0;12.0;-18.0;-31.0;272.0;-32.0;-7.0;2.0;41.0;42.49;-83.42;;863.3684186351546;4.0;1497.53;317.0;0 / 7;177008;2018-07-25 07:34:58:602
1.0;5.0;8.0;1.0;5.0;8.0;0.0;0.0;0.0;0.0;0.0;0.0;311.0;12.0;-18.0;-31.0;271.0;-33.0;-9.0;2.0;34.0;42.49;-83.42;;863.3684186351546;4.0;1497.53;317.0;0 / 7;177508;2018-07-25 07:34:59:102
1.0;6.0;9.0;1.0;5.0;8.0;0.0;0.0;1.0;0.0;0.0;0.0;309.0;13.0;-17.0;-30.0;274.0;-33.0;-8.0;2.0;33.0;42.49;-83.42;;863.3684186351546;4.0;1497.53;317.0;0 / 7;178007;2018-07-25 07:34:59:601
1.0;5.0;9.0;1.0;5.0;8.0;0.0;0.0;1.0;0.0;0.0;0.0;325.0;10.0;-18.0;-32.0;270.0;-31.0;-9.0;2.0;39.0;42.49;-83.42;;863.3684186351546;4.0;1497.53;317.0;0 / 7;178508;2018-07-25 07:35:00:102
1.0;5.0;9.0;1.0;5.0;8.0;0.0;0.0;1.0;0.0;0.0;0.0;360.0;10.0;-18.0;-31.0;270.0;-32.0;-8.0;2.0;32.0;42.49;-83.42;;863.3684186351546;4.0;1497.53;317.0;0 / 7;179008;2018-07-25 07:35:00:602
1.0;5.0;8.0;1.0;5.0;8.0;0.0;0.0;0.0;0.0;0.0;0.0;360.0;9.0;-19.0;-31.0;269.0;-33.0;-8.0;2.0;33.0;42.49;-83.42;;863.3684186351546;4.0;1497.53;317.0;0 / 7;179508;2018-07-25 07:35:01:102
1.0;5.0;8.0;1.0;5.0;8.0;0.0;0.0;0.0;0.0;0.0;0.0;349.0;8.0;-21.0;-31.0;263.0;-33.0;-8.0;2.0;31.0;42.49;-83.42;;863.3684186351546;4.0;1497.53;317.0;0 / 7;180008;2018-07-25 07:35:01:602
1.0;5.0;8.0;1.0;5.0;8.0;0.0;0.0;0.0;0.0;0.0;0.0;330.0;8.0;-21.0;-29.0;257.0;-33.0;-8.0;2.0;31.0;42.49;-83.42;;863.3684186351546;4.0;1497.53;317.0;0 / 7;180510;2018-07-25 07:35:02:104
1.0;5.0;8.0;1.0;5.0;8.0;0.0;0.0;0.0;0.0;0.0;0.0;335.0;7.0;-21.0;-28.0;254.0;-33.0;-8.0;2.0;31.0;42.49;-83.42;;863.3684186351546;4.0;1497.53;317.0;0 / 7;181007;2018-07-25 07:35:02:601
1.0;5.0;8.0;1.0;5.0;8.0;0.0;0.0;0.0;0.0;0.0;0.0;331.0;7.0;-20.0;-29.0;261.0;-33.0;-8.0;2.0;30.0;42.49;-83.42;;863.3684186351546;4.0;1497.53;317.0;0 / 7;181507;2018-07-25 07:35:03:101
1.0;5.0;9.0;1.0;5.0;8.0;0.0;0.0;0.0;0.0;0.0;0.0;331.0;8.0;-19.0;-28.0;261.0;-32.0;-6.0;2.0;30.0;42.49;-83.42;;863.3684186351546;4.0;1497.53;317.0;0 / 7;182008;2018-07-25 07:35:03:602
1.0;5.0;7.0;1.0;5.0;8.0;0.0;0.0;-1.0;0.0;0.0;0.0;335.0;8.0;-19.0;-29.0;262.0;-32.0;-6.0;2.0;29.0;42.49;-83.42;;863.3684186351546;4.0;1497.53;317.0;0 / 7;182508;2018-07-25 07:35:04:102
6.0;7.0;7.0;3.0;5.0;8.0;3.0;2.0;-1.0;0.0;-2.0;-1.0;346.0;1.0;-18.0;-32.0;267.0;-30.0;-13.0;2.0;29.0;42.49;-83.42;;863.3684186351546;4.0;1497.53;317.0;0 / 7;183007;2018-07-25 07:35:04:601
1.0;6.0;8.0;-1.0;5.0;9.0;2.0;1.0;-1.0;0.0;1.0;0.0;346.0;15.0;-18.0;-32.0;272.0;-29.0;4.0;2.0;42.0;42.49;-83.42;;863.3684186351546;4.0;1497.53;317.0;0 / 7;183507;2018-07-25 07:35:05:101
1.0;4.0;11.0;1.0;4.0;9.0;0.0;0.0;2.0;0.0;-1.0;0.0;263.0;7.0;-15.0;-35.0;276.0;-25.0;-5.0;2.0;56.0;42.49;-83.42;;863.3684186351546;4.0;1497.53;317.0;0 / 7;184007;2018-07-25 07:35:05:601
1.0;6.0;8.0;1.0;6.0;8.0;0.0;0.0;0.0;0.0;0.0;0.0;263.0;5.0;-22.0;-31.0;263.0;-36.0;-10.0;2.0;31.0;42.49;-83.42;;863.3684186351546;4.0;1497.53;317.0;0 / 7;184507;2018-07-25 07:35:06:101
1.0;4.0;6.0;1.0;4.0;9.0;0.0;0.0;-2.0;0.0;1.0;0.0;466.0;7.0;-14.0;-36.0;268.0;-21.0;-7.0;2.0;31.0;42.49;-83.42;795.0;861.8768818874807;3.0;154.84;143.0;5 / 11;185007;2018-07-25 07:35:06:601
1.0;7.0;3.0;1.0;4.0;9.0;0.0;2.0;-5.0;0.0;0.0;0.0;636.0;7.0;-21.0;-33.0;248.0;-27.0;-6.0;2.0;54.0;42.49;-83.42;795.0;861.8768818874807;3.0;154.84;143.0;5 / 11;185508;2018-07-25 07:35:07:102
2.0;4.0;9.0;3.0;4.0;9.0;-1.0;0.0;0.0;1.0;0.0;0.0;335.0;-1.0;-18.0;-34.0;253.0;-22.0;-19.0;2.0;50.0;42.49;-83.42;780.0;861.8768818874807;1.0;154.84;283.0;6 / 8;186008;2018-07-25 07:35:07:602
2.0;5.0;8.0;3.0;5.0;8.0;0.0;0.0;0.0;0.0;0.0;0.0;335.0;1.0;-22.0;-31.0;252.0;-32.0;-19.0;2.0;26.0;42.49;-83.42;780.0;861.8768818874807;1.0;154.84;283.0;6 / 8;186509;2018-07-25 07:35:08:103
3.0;6.0;8.0;2.0;5.0;8.0;0.0;0.0;-1.0;0.0;-1.0;0.0;516.0;3.0;-21.0;-32.0;260.0;-32.0;-14.0;2.0;24.0;42.49;-83.42;;861.8768818874807;1.0;14574.49;283.0;0 / 8;187008;2018-07-25 07:35:08:602
3.0;4.0;8.0;2.0;4.0;8.0;0.0;0.0;0.0;0.0;0.0;0.0;445.0;2.0;-17.0;-34.0;263.0;-26.0;-16.0;2.0;32.0;42.49;-83.42;;861.8768818874807;1.0;14574.49;283.0;0 / 8;187508;2018-07-25 07:35:09:102
4.0;6.0;5.0;4.0;5.0;8.0;2.0;2.0;-3.0;1.0;0.0;-1.0;469.0;-6.0;-23.0;-29.0;232.0;-29.0;-28.0;2.0;32.0;42.49;-83.42;;861.8768818874807;1.0;14574.49;283.0;5 / 12;188007;2018-07-25 07:35:09:601
4.0;6.0;7.0;4.0;5.0;8.0;0.0;1.0;-1.0;0.0;1.0;1.0;331.0;-8.0;-26.0;-25.0;206.0;-28.0;-29.0;2.0;35.0;42.49;-83.42;;861.8768818874807;1.0;14574.49;283.0;5 / 12;188507;2018-07-25 07:35:10:101
6.0;3.0;10.0;3.0;2.0;9.0;3.0;0.0;1.0;0.0;0.0;1.0;331.0;-11.0;-22.0;-28.0;180.0;-14.0;-22.0;2.0;35.0;42.49;-83.42;;861.8768818874807;1.0;14574.49;283.0;5 / 13;189008;2018-07-25 07:35:10:602
3.0;3.0;8.0;3.0;2.0;9.0;0.0;1.0;-1.0;0.0;0.0;1.0;92.0;-17.0;-24.0;-30.0;161.0;-12.0;-20.0;2.0;36.0;42.49;-83.42;;861.8768818874807;1.0;14574.49;283.0;5 / 13;189508;2018-07-25 07:35:11:102
3.0;1.0;7.0;4.0;1.0;9.0;-1.0;-1.0;-1.0;1.0;1.0;0.0;9.0;-21.0;-27.0;-29.0;164.0;-6.0;-25.0;2.0;37.0;42.49;-83.42;;861.8768818874807;1.0;17554.14;257.0;5 / 13;190008;2018-07-25 07:35:11:602
3.0;0.0;11.0;2.0;2.0;9.0;1.0;-2.0;2.0;-1.0;1.0;-2.0;9.0;-9.0;-33.0;-36.0;179.0;-10.0;-13.0;2.0;34.0;42.49;-83.42;;861.8768818874807;1.0;17554.14;257.0;5 / 13;190507;2018-07-25 07:35:12:101
4.0;2.0;13.0;1.0;4.0;9.0;2.0;-1.0;2.0;-1.0;-1.0;-2.0;40.0;9.0;-37.0;-35.0;208.0;-22.0;-7.0;2.0;36.0;42.49;-83.42;;861.8768818874807;1.0;17554.14;257.0;5 / 13;191007;2018-07-25 07:35:12:601
0.0;7.0;6.0;0.0;6.0;8.0;0.0;2.0;-2.0;0.0;0.0;-1.0;40.0;26.0;-30.0;-34.0;259.0;-35.0;-2.0;2.0;27.0;42.49;-83.42;;861.8768818874807;1.0;17554.14;257.0;5 / 13;191507;2018-07-25 07:35:13:101
2.0;7.0;10.0;1.0;6.0;8.0;2.0;1.0;2.0;0.0;-1.0;-2.0;87.0;23.0;-21.0;-41.0;278.0;-36.0;-4.0;2.0;25.0;42.49;-83.42;736.0;861.8768818874807;1.0;103.23;167.0;9 / 9;192007;2018-07-25 07:35:13:601
1.0;8.0;8.0;1.0;6.0;8.0;0.0;2.0;0.0;0.0;-1.0;-1.0;85.0;9.0;-13.0;-49.0;318.0;-37.0;-8.0;2.0;25.0;42.49;-83.42;736.0;861.8768818874807;1.0;103.23;167.0;9 / 9;192507;2018-07-25 07:35:14:101
1.0;8.0;8.0;1.0;7.0;7.0;-1.0;1.0;1.0;1.0;-1.0;0.0;18.0;2.0;-17.0;-50.0;333.0;-41.0;-9.0;2.0;24.0;42.49;-83.42;741.0;861.8768818874807;1.0;103.23;227.0;8 / 10;193007;2018-07-25 07:35:14:601
2.0;8.0;8.0;1.0;7.0;7.0;0.0;1.0;1.0;0.0;0.0;0.0;18.0;-2.0;-18.0;-47.0;345.0;-45.0;-9.0;2.0;23.0;42.49;-83.42;741.0;861.8768818874807;1.0;103.23;227.0;8 / 10;193507;2018-07-25 07:35:15:101
1.0;7.0;6.0;1.0;7.0;7.0;0.0;0.0;-1.0;0.0;0.0;0.0;58.0;-2.0;-12.0;-46.0;350.0;-42.0;-7.0;2.0;25.0;42.49;-83.42;743.0;861.8768818874807;1.0;77.42;216.0;9 / 10;194008;2018-07-25 07:35:15:602
-1.0;8.0;5.0;1.0;7.0;7.0;-2.0;1.0;-3.0;0.0;-1.0;0.0;25.0;-3.0;-10.0;-43.0;355.0;-44.0;-7.0;2.0;25.0;42.49;-83.42;743.0;861.8768818874807;1.0;77.42;216.0;9 / 10;194508;2018-07-25 07:35:16:102
1.0;5.0;8.0;1.0;6.0;8.0;0.0;0.0;0.0;0.0;0.0;0.0;176.0;-9.0;-5.0;-43.0;3.0;-37.0;-9.0;2.0;25.0;42.49;-83.42;746.0;861.8768818874807;2.0;77.42;206.0;9 / 11;195008;2018-07-25 07:35:16:602
0.0;8.0;6.0;2.0;8.0;6.0;-3.0;0.0;0.0;-1.0;0.0;0.0;48.0;-20.0;-21.0;-42.0;8.0;-51.0;-22.0;2.0;29.0;42.49;-83.42;746.0;861.8768818874807;2.0;77.42;206.0;9 / 11;195508;2018-07-25 07:35:17:102
4.0;6.0;10.0;2.0;7.0;7.0;2.0;-1.0;3.0;-1.0;0.0;-1.0;48.0;-19.0;-15.0;-48.0;6.0;-42.0;-19.0;2.0;27.0;42.49;-83.42;754.0;861.8768818874807;2.0;77.42;197.0;10 / 11;196008;2018-07-25 07:35:17:602
0.0;7.0;12.0;2.0;5.0;8.0;-2.0;2.0;4.0;-1.0;1.0;1.0;38.0;-22.0;-4.0;-48.0;17.0;-29.0;-17.0;2.0;28.0;42.49;-83.42;754.0;861.8768818874807;2.0;77.42;197.0;10 / 11;196507;2018-07-25 07:35:18:101
2.0;6.0;10.0;1.0;5.0;8.0;1.0;1.0;1.0;0.0;0.0;-1.0;29.0;-10.0;-5.0;-48.0;9.0;-32.0;-9.0;2.0;23.0;42.49;-83.42;768.0;861.8768818874807;3.0;77.42;203.0;10 / 11;197007;2018-07-25 07:35:18:601
1.0;8.0;8.0;2.0;6.0;7.0;-1.0;2.0;0.0;1.0;0.0;1.0;29.0;-13.0;-8.0;-44.0;4.0;-38.0;-14.0;2.0;27.0;42.49;-83.42;768.0;861.8768818874807;3.0;77.42;203.0;10 / 11;197508;2018-07-25 07:35:19:102
3.0;7.0;8.0;2.0;6.0;7.0;2.0;1.0;1.0;-1.0;0.0;-1.0;123.0;-14.0;-9.0;-42.0;358.0;-41.0;-19.0;2.0;26.0;42.49;-83.42;768.0;861.8768818874807;3.0;51.61;199.0;10 / 11;198008;2018-07-25 07:35:19:602
2.0;9.0;7.0;2.0;7.0;7.0;0.0;1.0;0.0;0.0;0.0;0.0;10.0;-15.0;-11.0;-41.0;1.0;-44.0;-19.0;2.0;25.0;42.49;-83.42;768.0;861.8768818874807;3.0;51.61;199.0;10 / 11;198508;2018-07-25 07:35:20:102
3.0;8.0;8.0;2.0;7.0;7.0;2.0;1.0;1.0;-1.0;0.0;0.0;72.0;-9.0;-12.0;-41.0;358.0;-46.0;-13.0;2.0;25.0;42.49;-83.42;769.0;861.8768818874807;3.0;51.61;178.0;11 / 12;199008;2018-07-25 07:35:20:602
2.0;9.0;7.0;1.0;7.0;6.0;1.0;2.0;1.0;0.0;0.0;0.0;187.0;-5.0;-13.0;-38.0;356.0;-47.0;-10.0;2.0;24.0;42.49;-83.42;769.0;861.8768818874807;3.0;51.61;178.0;11 / 12;199507;2018-07-25 07:35:21:101
3.0;8.0;11.0;1.0;7.0;7.0;2.0;1.0;4.0;0.0;0.0;0.0;227.0;-1.0;-8.0;-38.0;347.0;-45.0;-9.0;2.0;26.0;42.49;-83.42;770.0;861.8768818874807;3.0;51.61;163.0;11 / 11;200007;2018-07-25 07:35:21:601
2.0;8.0;12.0;2.0;6.0;7.0;1.0;2.0;4.0;0.0;0.0;1.0;227.0;-7.0;-8.0;-43.0;351.0;-42.0;-13.0;2.0;27.0;42.49;-83.42;770.0;861.8768818874807;3.0;51.61;163.0;11 / 11;200507;2018-07-25 07:35:22:101
2.0;6.0;9.0;2.0;6.0;8.0;0.0;0.0;1.0;-1.0;-1.0;1.0;60.0;-5.0;-8.0;-47.0;351.0;-37.0;-10.0;2.0;19.0;42.49;-83.42;771.0;861.8768818874807;3.0;51.61;153.0;11 / 12;201008;2018-07-25 07:35:22:602
2.0;6.0;7.0;2.0;5.0;8.0;0.0;1.0;-1.0;0.0;0.0;1.0;42.0;-12.0;-5.0;-49.0;359.0;-29.0;-14.0;2.0;25.0;42.49;-83.42;771.0;861.8768818874807;3.0;51.61;153.0;11 / 12;201508;2018-07-25 07:35:23:102
2.0;4.0;13.0;2.0;4.0;9.0;-1.0;-1.0;5.0;0.0;0.0;0.0;35.0;-14.0;0.0;-50.0;3.0;-25.0;-14.0;2.0;23.0;42.49;-83.42;772.0;861.8768818874807;3.0;51.61;143.0;11 / 11;202008;2018-07-25 07:35:23:602
0.0;5.0;11.0;2.0;4.0;9.0;-1.0;0.0;2.0;0.0;0.0;0.0;190.0;-13.0;0.0;-51.0;6.0;-25.0;-12.0;2.0;23.0;42.49;-83.42;772.0;861.8768818874807;3.0;51.61;143.0;11 / 11;202508;2018-07-25 07:35:24:102
2.0;5.0;8.0;2.0;5.0;8.0;0.0;0.0;0.0;0.0;0.0;0.0;190.0;-8.0;-2.0;-52.0;353.0;-29.0;-12.0;2.0;24.0;42.49;-83.42;772.0;861.8768818874807;3.0;51.61;141.0;11 / 13;203008;2018-07-25 07:35:24:602
2.0;6.0;7.0;2.0;5.0;8.0;0.0;1.0;-1.0;0.0;0.0;0.0;129.0;-9.0;-1.0;-50.0;354.0;-30.0;-13.0;2.0;26.0;42.49;-83.42;772.0;861.8768818874807;3.0;51.61;141.0;11 / 13;203508;2018-07-25 07:35:25:102
2.0;4.0;7.0;2.0;5.0;8.0;0.0;-1.0;-2.0;0.0;0.0;0.0;50.0;-6.0;-3.0;-46.0;344.0;-31.0;-15.0;2.0;25.0;42.49;-83.42;773.0;861.8768818874807;3.0;51.61;146.0;11 / 13;204008;2018-07-25 07:35:25:602
0.0;5.0;7.0;2.0;6.0;8.0;-1.0;0.0;-1.0;0.0;0.0;0.0;50.0;-3.0;-7.0;-43.0;345.0;-35.0;-11.0;2.0;23.0;42.49;-83.42;773.0;861.8768818874807;3.0;51.61;146.0;11 / 13;204508;2018-07-25 07:35:26:102
5.0;1.0;14.0;2.0;6.0;8.0;3.0;-4.0;7.0;-3.0;3.0;2.0;28.0;3.0;-11.0;-38.0;313.0;-39.0;-17.0;2.0;25.0;42.49;-83.42;773.0;861.8768818874807;3.0;51.61;144.0;11 / 13;205007;2018-07-25 07:35:26:601
-10.0;-4.0;-1.0;-7.0;-4.0;5.0;-3.0;1.0;-7.0;-1.0;7.0;1.0;133.0;38.0;13.0;-6.0;264.0;25.0;50.0;2.0;27.0;42.49;-83.42;773.0;861.8768818874807;3.0;51.61;144.0;11 / 13;205508;2018-07-25 07:35:27:102
-9.0;-2.0;2.0;-9.0;-3.0;2.0;-1.0;-2.0;-3.0;1.0;0.0;1.0;280.0;36.0;0.0;7.0;228.0;16.0;84.0;2.0;43.0;42.49;-83.42;773.0;861.8768818874807;3.0;38.71;105.0;12 / 13;206008;2018-07-25 07:35:27:602
3.0;-5.0;-5.0;0.0;-10.0;1.0;3.0;5.0;-6.0;-1.0;-2.0;-3.0;87.0;19.0;32.0;-1.0;221.0;80.0;57.0;0.0;52.0;42.49;-83.42;773.0;863.3229625983402;3.0;38.71;105.0;12 / 13;206508;2018-07-25 07:35:28:102
0.0;-10.0;5.0;2.0;-10.0;0.0;-1.0;0.0;4.0;-1.0;-2.0;0.0;5.0;15.0;36.0;-3.0;341.0;80.0;-75.0;0.0;65.0;42.49;-83.42;773.0;863.3229625983402;3.0;38.71;105.0;12 / 12;207008;2018-07-25 07:35:28:602
1.0;-10.0;0.0;1.0;-10.0;0.0;0.0;0.0;0.0;0.0;0.0;0.0;5.0;15.0;36.0;-5.0;345.0;82.0;-87.0;0.0;26.0;42.49;-83.42;773.0;863.3229625983402;3.0;38.71;105.0;12 / 12;207508;2018-07-25 07:35:29:102
1.0;-10.0;0.0;1.0;-10.0;0.0;0.0;0.0;1.0;0.0;0.0;0.0;4.0;16.0;36.0;-4.0;354.0;82.0;-96.0;0.0;25.0;42.49;-83.42;773.0;863.3229625983402;3.0;38.71;104.0;9 / 12;208007;2018-07-25 07:35:29:601
1.0;-10.0;0.0;1.0;-10.0;0.0;0.0;0.0;0.0;0.0;0.0;0.0;4.0;16.0;36.0;-4.0;352.0;83.0;-94.0;0.0;25.0;42.49;-83.42;773.0;863.3229625983402;3.0;38.71;104.0;9 / 12;208507;2018-07-25 07:35:30:101
0.0;-10.0;0.0;1.0;-10.0;0.0;-1.0;0.0;0.0;0.0;0.0;0.0;4.0;17.0;36.0;-2.0;3.0;83.0;-100.0;0.0;24.0;42.49;-83.42;773.0;863.3229625983402;3.0;38.71;105.0;8 / 12;209007;2018-07-25 07:35:30:601
1.0;-9.0;0.0;1.0;-10.0;0.0;0.0;0.0;0.0;0.0;0.0;0.0;2.0;17.0;36.0;0.0;13.0;82.0;-106.0;0.0;25.0;42.49;-83.42;773.0;863.3229625983402;3.0;38.71;105.0;8 / 12;209507;2018-07-25 07:35:31:101
2.0;-10.0;0.0;1.0;-10.0;-1.0;0.0;0.0;1.0;0.0;0.0;0.0;2.0;17.0;36.0;0.0;17.0;81.0;-112.0;0.0;32.0;42.49;-83.42;773.0;863.3229625983402;2.0;51.61;104.0;8 / 12;210008;2018-07-25 07:35:31:602
2.0;-10.0;-1.0;1.0;-10.0;-1.0;0.0;0.0;0.0;0.0;0.0;0.0;0.0;19.0;35.0;-1.0;18.0;83.0;-115.0;0.0;26.0;42.49;-83.42;773.0;863.3229625983402;2.0;51.61;104.0;8 / 12;210508;2018-07-25 07:35:32:102
1.0;-10.0;0.0;1.0;-10.0;-1.0;0.0;0.0;0.0;0.0;0.0;0.0;0.0;20.0;35.0;-1.0;32.0;84.0;-131.0;0.0;25.0;42.49;-83.42;773.0;863.3229625983402;2.0;51.61;101.0;10 / 12;211007;2018-07-25 07:35:32:601
1.0;-10.0;-1.0;1.0;-10.0;-1.0;0.0;0.0;0.0;0.0;0.0;0.0;0.0;20.0;36.0;2.0;32.0;84.0;-123.0;0.0;31.0;42.49;-83.42;773.0;863.3229625983402;2.0;51.61;101.0;10 / 12;211508;2018-07-25 07:35:33:102
1.0;-10.0;-1.0;1.0;-10.0;0.0;0.0;0.0;0.0;0.0;0.0;0.0;2.0;20.0;36.0;2.0;28.0;84.0;-116.0;0.0;24.0;42.49;-83.42;773.0;863.3229625983402;2.0;51.61;101.0;10 / 12;212007;2018-07-25 07:35:33:601
1.0;-10.0;-1.0;1.0;-10.0;-1.0;0.0;0.0;0.0;0.0;0.0;0.0;4.0;19.0;36.0;5.0;39.0;83.0;-121.0;0.0;24.0;42.49;-83.42;773.0;863.3229625983402;2.0;51.61;101.0;10 / 12;212507;2018-07-25 07:35:34:101
1.0;-10.0;0.0;1.0;-10.0;-1.0;0.0;0.0;0.0;0.0;0.0;0.0;6.0;20.0;37.0;4.0;36.0;83.0;-121.0;0.0;27.0;42.49;-83.42;773.0;863.3229625983402;2.0;51.61;101.0;11 / 12;213008;2018-07-25 07:35:34:602
0.0;-10.0;0.0;1.0;-10.0;-1.0;-1.0;0.0;0.0;0.0;-1.0;0.0;5.0;21.0;35.0;3.0;40.0;84.0;-127.0;0.0;31.0;42.49;-83.42;773.0;863.3229625983402;2.0;51.61;101.0;11 / 12;213508;2018-07-25 07:35:35:102
0.0;-10.0;1.0;1.0;-10.0;-1.0;-1.0;0.0;2.0;0.0;1.0;0.0;5.0;18.0;36.0;6.0;39.0;82.0;-124.0;0.0;29.0;42.49;-83.42;773.0;863.3229625983402;2.0;51.61;101.0;11 / 12;214008;2018-07-25 07:35:35:602
2.0;-9.0;1.0;1.0;-10.0;1.0;1.0;1.0;0.0;-1.0;-1.0;0.0;5.0;15.0;30.0;10.0;341.0;82.0;-33.0;0.0;33.0;42.49;-83.42;773.0;863.3229625983402;2.0;51.61;101.0;11 / 12;214507;2018-07-25 07:35:36:101
-2.0;-9.0;0.0;1.0;-10.0;0.0;-2.0;0.0;1.0;0.0;-2.0;0.0;5.0;12.0;30.0;12.0;51.0;83.0;-105.0;0.0;34.0;42.49;-83.42;773.0;863.3229625983402;2.0;51.61;101.0;12 / 14;215007;2018-07-25 07:35:36:601
1.0;-9.0;0.0;1.0;-10.0;0.0;0.0;0.0;0.0;0.0;0.0;0.0;14.0;14.0;28.0;11.0;56.0;84.0;-116.0;0.0;38.0;42.49;-83.42;773.0;863.3229625983402;2.0;51.61;101.0;12 / 14;215508;2018-07-25 07:35:37:102
1.0;-10.0;-1.0;1.0;-10.0;-1.0;0.0;0.0;0.0;0.0;0.0;0.0;14.0;12.0;26.0;7.0;49.0;82.0;-118.0;0.0;39.0;42.49;-83.42;773.0;863.3229625983402;2.0;51.61;101.0;12 / 14;216008;2018-07-25 07:35:37:602
7.0;-12.0;5.0;2.0;-10.0;-1.0;5.0;-2.0;6.0;2.0;-3.0;-1.0;13.0;-2.0;18.0;-3.0;320.0;76.0;-120.0;0.0;31.0;42.49;-83.42;773.0;863.3229625983402;2.0;51.61;101.0;12 / 14;216508;2018-07-25 07:35:38:102
3.0;-9.0;7.0;1.0;-9.0;4.0;2.0;1.0;2.0;0.0;-2.0;0.0;13.0;15.0;34.0;-1.0;317.0;65.0;-12.0;0.0;45.0;42.49;-83.42;773.0;863.3229625983402;2.0;51.61;101.0;11 / 13;217008;2018-07-25 07:35:38:602
-1.0;-9.0;0.0;1.0;-10.0;0.0;-2.0;0.0;1.0;0.0;-1.0;0.0;5.0;11.0;36.0;1.0;16.0;82.0;-108.0;0.0;40.0;42.49;-83.42;773.0;863.3229625983402;2.0;51.61;101.0;11 / 13;217508;2018-07-25 07:35:39:102
3.0;-9.0;-1.0;1.0;-9.0;3.0;2.0;0.0;-3.0;1.0;1.0;0.0;6.0;14.0;42.0;-1.0;313.0;75.0;-12.0;0.0;35.0;42.49;-83.42;773.0;863.3229625983402;2.0;51.61;101.0;12 / 13;218008;2018-07-25 07:35:39:602
2.0;-9.0;-1.0;1.0;-10.0;2.0;0.0;0.0;-2.0;0.0;1.0;0.0;6.0;19.0;46.0;-9.0;290.0;76.0;-15.0;0.0;46.0;42.49;-83.42;773.0;863.3229625983402;2.0;51.61;101.0;12 / 13;218508;2018-07-25 07:35:40:102
0.0;-12.0;0.0;1.0;-10.0;-1.0;-1.0;-2.0;1.0;-1.0;0.0;0.0;4.0;15.0;48.0;3.0;36.0;81.0;-131.0;0.0;36.0;42.49;-83.42;773.0;863.3229625983402;2.0;51.61;101.0;13 / 14;219008;2018-07-25 07:35:40:602
3.0;-4.0;0.0;0.0;-9.0;4.0;3.0;5.0;-4.0;-1.0;0.0;0.0;4.0;18.0;42.0;-22.0;273.0;63.0;-5.0;0.0;48.0;42.49;-83.42;773.0;863.3229625983402;2.0;51.61;101.0;13 / 14;219507;2018-07-25 07:35:41:101
0.0;-10.0;6.0;1.0;-10.0;1.0;-1.0;-1.0;3.0;-2.0;0.0;0.0;2.0;12.0;48.0;-6.0;329.0;81.0;-69.0;0.0;48.0;42.49;-83.42;773.0;863.3229625983402;2.0;51.61;101.0;13 / 14;220007;2018-07-25 07:35:41:601
3.0;-11.0;1.0;1.0;-9.0;2.0;3.0;-2.0;-3.0;1.0;6.0;0.0;3.0;17.0;44.0;-9.0;289.0;77.0;-21.0;0.0;39.0;42.49;-83.42;773.0;863.3229625983402;2.0;51.61;101.0;13 / 14;220507;2018-07-25 07:35:42:101
0.0;-8.0;-3.0;1.0;-9.0;3.0;-1.0;3.0;-5.0;0.0;0.0;0.0;0.0;13.0;44.0;-13.0;289.0;73.0;-21.0;0.0;43.0;42.49;-83.42;779.0;863.3229625983402;2.0;38.71;322.0;13 / 14;221008;2018-07-25 07:35:42:602
2.0;-13.0;12.0;2.0;-10.0;-2.0;1.0;-3.0;13.0;0.0;0.0;0.0;0.0;8.0;46.0;4.0;34.0;77.0;-136.0;0.0;36.0;42.49;-83.42;779.0;863.3229625983402;2.0;38.71;322.0;13 / 14;221508;2018-07-25 07:35:43:102
0.0;-8.0;2.0;0.0;-9.0;4.0;0.0;1.0;-2.0;0.0;-2.0;0.0;4.0;11.0;40.0;-30.0;224.0;66.0;3.0;0.0;44.0;42.49;-83.42;779.0;863.3229625983402;2.0;38.71;327.0;13 / 13;222008;2018-07-25 07:35:43:602
0.0;-11.0;2.0;2.0;-9.0;1.0;-2.0;-1.0;0.0;-3.0;-2.0;0.0;6.0;-11.0;43.0;-22.0;242.0;74.0;-62.0;0.0;42.0;42.49;-83.42;779.0;863.3229625983402;2.0;38.71;327.0;13 / 13;222507;2018-07-25 07:35:44:101
2.0;-13.0;-2.0;2.0;-10.0;1.0;1.0;-3.0;-3.0;3.0;2.0;0.0;6.0;-14.0;43.0;-22.0;233.0;79.0;-73.0;0.0;36.0;42.49;-83.42;779.0;863.3229625983402;3.0;38.71;304.0;12 / 13;223008;2018-07-25 07:35:44:602
3.0;-10.0;3.0;2.0;-9.0;2.0;1.0;-2.0;1.0;-1.0;1.0;1.0;3.0;-27.0;43.0;-29.0;189.0;74.0;-49.0;0.0;46.0;42.49;-83.42;779.0;863.3229625983402;3.0;38.71;304.0;12 / 13;223507;2018-07-25 07:35:45:101
0.0;-10.0;0.0;1.0;-10.0;0.0;-1.0;0.0;0.0;0.0;0.0;0.0;3.0;-30.0;46.0;-13.0;245.0;86.0;-126.0;0.0;36.0;42.49;-83.42;779.0;863.3229625983402;3.0;38.71;244.0;12 / 13;224008;2018-07-25 07:35:45:602
-1.0;-10.0;0.0;0.0;-10.0;-1.0;0.0;0.0;1.0;0.0;-1.0;0.0;0.0;-30.0;47.0;-3.0;305.0;86.0;158.0;0.0;23.0;42.49;-83.42;779.0;863.3229625983402;3.0;38.71;244.0;12 / 13;224508;2018-07-25 07:35:46:102
0.0;-10.0;0.0;0.0;-10.0;0.0;0.0;0.0;0.0;0.0;0.0;0.0;1.0;-35.0;45.0;-1.0;199.0;88.0;-106.0;0.0;22.0;42.49;-83.42;779.0;863.3229625983402;3.0;38.71;244.0;12 / 13;225007;2018-07-25 07:35:46:601
2.0;-9.0;1.0;1.0;-10.0;1.0;1.0;0.0;0.0;0.0;0.0;0.0;1.0;-34.0;45.0;5.0;140.0;82.0;-63.0;0.0;24.0;42.49;-83.42;779.0;863.3229625983402;3.0;38.71;244.0;12 / 13;225507;2018-07-25 07:35:47:101
1.0;-8.0;0.0;1.0;-10.0;1.0;0.0;1.0;0.0;-1.0;-1.0;0.0;1.0;-37.0;45.0;5.0;140.0;81.0;-65.0;0.0;30.0;42.49;-83.42;779.0;863.3229625983402;2.0;25.81;180.0;12 / 13;226008;2018-07-25 07:35:47:602
0.0;-10.0;0.0;1.0;-10.0;-1.0;-1.0;-1.0;0.0;0.0;-2.0;0.0;1.0;-27.0;45.0;21.0;185.0;84.0;-132.0;0.0;30.0;42.49;-83.42;779.0;863.3229625983402;2.0;25.81;180.0;12 / 13;226508;2018-07-25 07:35:48:102
-1.0;-10.0;1.0;1.0;-10.0;-1.0;-2.0;0.0;2.0;0.0;-1.0;-1.0;0.0;-17.0;45.0;26.0;161.0;82.0;-132.0;0.0;23.0;42.49;-83.42;779.0;863.1519520993926;2.0;25.81;185.0;12 / 13;227007;2018-07-25 07:35:48:601
4.0;-9.0;0.0;1.0;-10.0;2.0;2.0;0.0;-1.0;1.0;-1.0;1.0;0.0;-6.0;45.0;9.0;43.0;78.0;-46.0;0.0;33.0;42.49;-83.42;779.0;863.1519520993926;2.0;25.81;185.0;12 / 13;227507;2018-07-25 07:35:49:101
3.0;-10.0;0.0;1.0;-10.0;2.0;3.0;-2.0;0.0;-1.0;1.0;0.0;3.0;-2.0;46.0;9.0;19.0;75.0;-33.0;0.0;43.0;42.49;-83.42;779.0;863.1519520993926;1.0;25.81;146.0;12 / 13;228008;2018-07-25 07:35:49:602
2.0;-10.0;2.0;1.0;-10.0;-1.0;1.0;0.0;2.0;-1.0;0.0;0.0;3.0;-1.0;41.0;24.0;142.0;83.0;-148.0;0.0;34.0;42.49;-83.42;779.0;863.1519520993926;1.0;25.81;146.0;12 / 13;228507;2018-07-25 07:35:50:101
2.0;-10.0;1.0;1.0;-10.0;2.0;1.0;-1.0;-2.0;1.0;2.0;0.0;2.0;-9.0;45.0;4.0;51.0;79.0;-33.0;0.0;40.0;42.49;-83.42;779.0;863.1519520993926;1.0;25.81;88.0;13 / 13;229008;2018-07-25 07:35:50:602
1.0;-8.0;3.0;1.0;-9.0;3.0;0.0;1.0;0.0;-1.0;0.0;0.0;2.0;-12.0;45.0;1.0;45.0;70.0;-25.0;0.0;37.0;42.49;-83.42;779.0;863.1519520993926;1.0;25.81;88.0;13 / 13;229508;2018-07-25 07:35:51:102
0.0;-10.0;0.0;1.0;-10.0;0.0;-1.0;0.0;-1.0;0.0;0.0;0.0;2.0;-6.0;43.0;15.0;64.0;85.0;-54.0;0.0;34.0;42.49;-83.42;779.0;863.1519520993926;1.0;25.81;92.0;13 / 13;230008;2018-07-25 07:35:51:602
-1.0;-10.0;0.0;0.0;-10.0;-1.0;-1.0;0.0;0.0;0.0;-1.0;0.0;0.0;-4.0;41.0;19.0;167.0;87.0;-157.0;0.0;25.0;42.49;-83.42;779.0;863.1519520993926;1.0;25.81;92.0;13 / 13;230508;2018-07-25 07:35:52:102
-1.0;-10.0;-1.0;1.0;-10.0;-1.0;-1.0;0.0;0.0;-1.0;-1.0;0.0;0.0;-7.0;39.0;21.0;148.0;82.0;-138.0;0.0;23.0;42.49;-83.42;778.0;863.1519520993926;1.0;25.81;103.0;13 / 13;231008;2018-07-25 07:35:52:602
-2.0;-9.0;3.0;0.0;-9.0;4.0;-1.0;0.0;-1.0;0.0;-1.0;0.0;0.0;-4.0;47.0;-1.0;14.0;68.0;-4.0;0.0;46.0;42.49;-83.42;778.0;863.1519520993926;1.0;25.81;103.0;13 / 13;231508;2018-07-25 07:35:53:102
1.0;-10.0;0.0;1.0;-10.0;1.0;0.0;0.0;-1.0;-1.0;-1.0;0.0;0.0;-1.0;45.0;14.0;39.0;80.0;-56.0;0.0;44.0;42.49;-83.42;778.0;863.1519520993926;1.0;25.81;104.0;13 / 13;232008;2018-07-25 07:35:53:602
1.0;-10.0;0.0;1.0;-10.0;0.0;0.0;0.0;0.0;0.0;0.0;0.0;0.0;2.0;43.0;18.0;83.0;84.0;-104.0;0.0;21.0;42.49;-83.42;778.0;863.1519520993926;1.0;25.81;104.0;13 / 13;232507;2018-07-25 07:35:54:101
1.0;-10.0;0.0;1.0;-10.0;-1.0;0.0;0.0;0.0;0.0;0.0;0.0;0.0;5.0;44.0;17.0;84.0;83.0;-117.0;0.0;22.0;42.49;-83.42;777.0;863.1519520993926;1.0;25.81;96.0;12 / 13;233007;2018-07-25 07:35:54:601
0.0;-10.0;0.0;1.0;-10.0;0.0;-1.0;0.0;0.0;0.0;0.0;0.0;1.0;6.0;44.0;16.0;77.0;85.0;-111.0;0.0;19.0;42.49;-83.42;777.0;863.1519520993926;1.0;25.81;96.0;12 / 13;233507;2018-07-25 07:35:55:101
-1.0;-10.0;-2.0;1.0;-10.0;0.0;-1.0;0.0;-2.0;1.0;0.0;0.0;4.0;14.0;46.0;2.0;342.0;86.0;-60.0;0.0;23.0;42.49;-83.42;777.0;863.1519520993926;1.0;25.81;96.0;12 / 13;234007;2018-07-25 07:35:55:601
0.0;-9.0;1.0;2.0;-10.0;1.0;-3.0;0.0;1.0;1.0;-3.0;0.0;4.0;3.0;47.0;-14.0;304.0;77.0;-72.0;0.0;35.0;42.49;-83.42;777.0;863.1519520993926;1.0;25.81;96.0;12 / 13;234508;2018-07-25 07:35:56:102
3.0;-6.0;2.0;0.0;-9.0;3.0;3.0;2.0;-1.0;0.0;0.0;0.0;2.0;7.0;38.0;-29.0;211.0;71.0;-4.0;0.0;39.0;42.49;-83.42;777.0;863.1519520993926;1.0;25.81;65.0;12 / 13;235007;2018-07-25 07:35:56:601
-1.0;-9.0;2.0;3.0;-9.0;-1.0;-5.0;3.0;2.0;-1.0;-1.0;0.0;2.0;-9.0;47.0;-11.0;307.0;72.0;-111.0;0.0;47.0;42.49;-83.42;777.0;863.1519520993926;1.0;25.81;65.0;12 / 13;235507;2018-07-25 07:35:57:101
-1.0;-14.0;3.0;1.0;-10.0;0.0;-3.0;-5.0;3.0;1.0;-1.0;1.0;2.0;-2.0;43.0;-17.0;273.0;80.0;-74.0;0.0;52.0;42.49;-83.42;776.0;863.1519520993926;1.0;25.81;340.0;12 / 13;236007;2018-07-25 07:35:57:601
-9.0;-7.0;3.0;-7.0;-7.0;2.0;-2.0;1.0;-2.0;1.0;2.0;2.0;9.0;41.0;21.0;-17.0;154.0;44.0;77.0;0.0;48.0;42.49;-83.42;776.0;863.1519520993926;1.0;25.81;340.0;12 / 13;236507;2018-07-25 07:35:58:101
-8.0;-2.0;2.0;-8.0;-5.0;0.0;-1.0;2.0;1.0;0.0;0.0;1.0;9.0;48.0;13.0;-11.0;133.0;31.0;91.0;2.0;43.0;42.49;-83.42;776.0;863.1519520993926;1.0;25.81;299.0;12 / 13;237008;2018-07-25 07:35:58:602
1.0;0.0;6.0;-2.0;5.0;8.0;4.0;-4.0;-2.0;-1.0;0.0;0.0;52.0;-8.0;-35.0;-46.0;116.0;-29.0;17.0;2.0;26.0;42.49;-83.42;776.0;863.1519520993926;1.0;25.81;299.0;12 / 13;237508;2018-07-25 07:35:59:102
0.0;3.0;6.0;-1.0;4.0;9.0;1.0;-1.0;-2.0;1.0;0.0;-1.0;47.0;-9.0;-40.0;-44.0;146.0;-20.0;6.0;2.0;32.0;42.49;-83.42;776.0;863.1519520993926;2.0;25.81;283.0;12 / 13;238008;2018-07-25 07:35:59:602
-1.0;3.0;8.0;-1.0;4.0;9.0;0.0;-1.0;0.0;0.0;-1.0;-1.0;32.0;-1.0;-44.0;-39.0;163.0;-24.0;8.0;2.0;22.0;42.49;-83.42;776.0;863.1519520993926;2.0;25.81;283.0;12 / 13;238507;2018-07-25 07:36:00:101
0.0;1.0;11.0;1.0;4.0;9.0;0.0;-2.0;2.0;0.0;-1.0;-3.0;30.0;13.0;-33.0;-42.0;222.0;-22.0;-3.0;2.0;18.0;42.49;-83.42;776.0;863.1519520993926;2.0;25.81;269.0;12 / 13;239008;2018-07-25 07:36:00:602
2.0;5.0;8.0;0.0;5.0;9.0;2.0;1.0;0.0;0.0;-1.0;-1.0;30.0;16.0;-21.0;-47.0;279.0;-28.0;0.0;2.0;18.0;42.49;-83.42;776.0;863.1519520993926;2.0;25.81;269.0;12 / 13;239507;2018-07-25 07:36:01:101
-1.0;5.0;7.0;0.0;6.0;8.0;-1.0;-1.0;0.0;0.0;0.0;-1.0;25.0;14.0;-23.0;-46.0;305.0;-37.0;1.0;2.0;19.0;42.49;-83.42;776.0;863.1519520993926;3.0;25.81;249.0;13 / 14;240008;2018-07-25 07:36:01:602
-3.0;6.0;8.0;0.0;5.0;8.0;-2.0;1.0;0.0;0.0;0.0;0.0;24.0;8.0;-15.0;-51.0;338.0;-31.0;3.0;2.0;17.0;42.49;-83.42;776.0;863.1519520993926;3.0;25.81;249.0;13 / 14;240508;2018-07-25 07:36:02:102
0.0;5.0;6.0;0.0;6.0;8.0;0.0;-1.0;-2.0;0.0;0.0;0.0;18.0;6.0;-18.0;-49.0;337.0;-35.0;1.0;2.0;18.0;42.49;-83.42;776.0;863.1519520993926;2.0;25.81;243.0;13 / 13;241007;2018-07-25 07:36:02:601
1.0;4.0;12.0;1.0;5.0;9.0;1.0;0.0;3.0;0.0;-1.0;0.0;18.0;3.0;-12.0;-50.0;338.0;-28.0;-2.0;2.0;20.0;42.49;-83.42;776.0;863.1519520993926;2.0;25.81;243.0;13 / 13;241507;2018-07-25 07:36:03:101
0.0;5.0;9.0;0.0;5.0;9.0;-1.0;0.0;1.0;0.0;0.0;0.0;12.0;5.0;-12.0;-50.0;339.0;-29.0;-1.0;2.0;18.0;42.49;-83.42;776.0;863.1519520993926;2.0;25.81;244.0;13 / 13;242007;2018-07-25 07:36:03:601
1.0;4.0;8.0;1.0;5.0;8.0;0.0;-1.0;-1.0;-1.0;-1.0;1.0;12.0;3.0;-17.0;-49.0;333.0;-34.0;-4.0;2.0;18.0;42.49;-83.42;776.0;863.1519520993926;2.0;25.81;244.0;13 / 13;242507;2018-07-25 07:36:04:101
-1.0;4.0;10.0;0.0;5.0;9.0;-1.0;0.0;1.0;0.0;1.0;1.0;14.0;11.0;-15.0;-47.0;309.0;-28.0;0.0;2.0;19.0;42.49;-83.42;776.0;863.1519520993926;2.0;25.81;236.0;12 / 14;243008;2018-07-25 07:36:04:602
-1.0;4.0;9.0;-1.0;4.0;9.0;-1.0;0.0;0.0;0.0;1.0;0.0;14.0;18.0;-16.0;-45.0;284.0;-24.0;3.0;2.0;20.0;42.49;-83.42;776.0;863.1519520993926;2.0;25.81;236.0;12 / 14;243508;2018-07-25 07:36:05:102
-1.0;4.0;9.0;-1.0;4.0;9.0;0.0;0.0;0.0;0.0;0.0;0.0;14.0;19.0;-18.0;-43.0;277.0;-24.0;6.0;2.0;18.0;42.49;-83.42;776.0;863.1519520993926;2.0;25.81;222.0;13 / 13;244008;2018-07-25 07:36:05:602
-1.0;4.0;9.0;-1.0;4.0;9.0;0.0;0.0;0.0;0.0;0.0;0.0;13.0;18.0;-18.0;-43.0;276.0;-24.0;5.0;2.0;16.0;42.49;-83.42;776.0;863.1519520993926;2.0;25.81;222.0;13 / 13;244508;2018-07-25 07:36:06:102
-1.0;4.0;9.0;-1.0;4.0;9.0;0.0;0.0;0.0;0.0;0.0;0.0;11.0;19.0;-19.0;-44.0;275.0;-24.0;5.0;2.0;17.0;42.49;-83.42;776.0;863.1519520993926;2.0;25.81;191.0;11 / 14;245007;2018-07-25 07:36:06:601
-3.0;5.0;8.0;-2.0;4.0;8.0;0.0;0.0;0.0;0.0;1.0;0.0;10.0;27.0;-20.0;-39.0;276.0;-27.0;12.0;2.0;17.0;42.49;-83.42;776.0;863.1519520993926;2.0;25.81;191.0;11 / 14;245508;2018-07-25 07:36:07:102
-2.0;4.0;9.0;-2.0;4.0;9.0;0.0;0.0;0.0;0.0;-1.0;0.0;9.0;25.0;-20.0;-40.0;277.0;-26.0;15.0;2.0;18.0;42.49;-83.42;776.0;863.1519520993926;1.0;25.81;189.0;11 / 14;246008;2018-07-25 07:36:07:602
-1.0;4.0;9.0;-1.0;4.0;9.0;0.0;0.0;0.0;0.0;0.0;0.0;9.0;22.0;-18.0;-42.0;274.0;-23.0;9.0;2.0;17.0;42.49;-83.42;776.0;863.1519520993926;1.0;25.81;189.0;11 / 14;246508;2018-07-25 07:36:08:102
-1.0;4.0;9.0;-1.0;4.0;9.0;0.0;0.0;0.0;0.0;0.0;0.0;8.0;21.0;-18.0;-42.0;272.0;-23.0;8.0;2.0;17.0;42.49;-83.42;776.0;863.1519520993926;1.0;25.81;171.0;11 / 14;247008;2018-07-25 07:36:08:602
-1.0;4.0;9.0;-1.0;4.0;9.0;0.0;0.0;0.0;0.0;0.0;0.0;8.0;20.0;-18.0;-43.0;275.0;-22.0;7.0;2.0;17.0;42.49;-83.42;776.0;863.1519520993926;1.0;25.81;171.0;11 / 14;247507;2018-07-25 07:36:09:101
-1.0;4.0;9.0;-1.0;4.0;9.0;0.0;0.0;0.0;0.0;0.0;0.0;8.0;20.0;-18.0;-44.0;271.0;-22.0;6.0;2.0;17.0;42.49;-83.42;776.0;863.0489251963489;0.0;25.81;168.0;11 / 14;248007;2018-07-25 07:36:09:601
-1.0;4.0;9.0;-1.0;4.0;9.0;0.0;0.0;0.0;0.0;0.0;0.0;8.0;20.0;-16.0;-44.0;273.0;-21.0;6.0;2.0;18.0;42.49;-83.42;776.0;863.0489251963489;0.0;25.81;168.0;11 / 14;248507;2018-07-25 07:36:10:101
-1.0;4.0;9.0;-1.0;4.0;9.0;0.0;0.0;0.0;0.0;0.0;0.0;9.0;20.0;-17.0;-44.0;274.0;-21.0;7.0;2.0;18.0;42.49;-83.42;776.0;863.0489251963489;0.0;25.81;168.0;11 / 14;249008;2018-07-25 07:36:10:602
-1.0;4.0;9.0;-1.0;4.0;9.0;0.0;0.0;0.0;0.0;0.0;0.0;9.0;20.0;-17.0;-44.0;274.0;-21.0;6.0;2.0;17.0;42.49;-83.42;776.0;863.0489251963489;0.0;25.81;168.0;11 / 14;249508;2018-07-25 07:36:11:102
-1.0;4.0;9.0;-1.0;4.0;9.0;0.0;0.0;0.0;0.0;0.0;0.0;9.0;19.0;-17.0;-44.0;268.0;-21.0;5.0;2.0;17.0;42.49;-83.42;776.0;863.0489251963489;0.0;25.81;168.0;11 / 14;250008;2018-07-25 07:36:11:602
-1.0;3.0;9.0;-1.0;3.0;9.0;0.0;0.0;0.0;0.0;0.0;0.0;9.0;19.0;-15.0;-45.0;272.0;-19.0;5.0;2.0;18.0;42.49;-83.42;776.0;863.0489251963489;0.0;25.81;168.0;11 / 14;250508;2018-07-25 07:36:12:102
-1.0;3.0;10.0;-1.0;3.0;9.0;0.0;0.0;0.0;0.0;0.0;0.0;9.0;18.0;-13.0;-45.0;271.0;-16.0;4.0;2.0;19.0;42.49;-83.42;776.0;863.0489251963489;0.0;25.81;168.0;11 / 13;251008;2018-07-25 07:36:12:602
-1.0;3.0;10.0;-1.0;3.0;9.0;0.0;0.0;0.0;0.0;0.0;0.0;9.0;19.0;-13.0;-45.0;270.0;-16.0;4.0;2.0;17.0;42.49;-83.42;776.0;863.0489251963489;0.0;25.81;168.0;11 / 13;251508;2018-07-25 07:36:13:102
-1.0;3.0;10.0;-1.0;3.0;9.0;0.0;0.0;0.0;0.0;0.0;0.0;10.0;18.0;-12.0;-45.0;271.0;-15.0;4.0;2.0;18.0;42.49;-83.42;776.0;863.0489251963489;0.0;25.81;168.0;11 / 14;252008;2018-07-25 07:36:13:602
-1.0;3.0;10.0;-1.0;3.0;9.0;0.0;0.0;0.0;0.0;0.0;0.0;10.0;17.0;-12.0;-46.0;272.0;-15.0;3.0;2.0;17.0;42.49;-83.42;776.0;863.0489251963489;0.0;25.81;168.0;11 / 14;252508;2018-07-25 07:36:14:102
-1.0;3.0;10.0;-1.0;3.0;9.0;0.0;0.0;0.0;0.0;0.0;0.0;10.0;18.0;-12.0;-46.0;273.0;-15.0;3.0;2.0;17.0;42.49;-83.42;776.0;863.0489251963489;0.0;25.81;168.0;12 / 14;253007;2018-07-25 07:36:14:601
0.0;3.0;10.0;0.0;3.0;9.0;0.0;0.0;0.0;0.0;0.0;0.0;10.0;18.0;-12.0;-46.0;273.0;-15.0;3.0;2.0;17.0;42.49;-83.42;776.0;863.0489251963489;0.0;25.81;168.0;12 / 14;253507;2018-07-25 07:36:15:101
0.0;3.0;10.0;0.0;3.0;9.0;0.0;0.0;0.0;0.0;0.0;0.0;11.0;17.0;-12.0;-46.0;272.0;-15.0;2.0;2.0;17.0;42.49;-83.42;776.0;863.0489251963489;0.0;25.81;168.0;12 / 13;254008;2018-07-25 07:36:15:602
0.0;2.0;10.0;0.0;2.0;9.0;0.0;0.0;0.0;0.0;0.0;0.0;10.0;17.0;-12.0;-47.0;272.0;-15.0;2.0;2.0;17.0;42.49;-83.42;776.0;863.0489251963489;0.0;25.81;168.0;12 / 13;254507;2018-07-25 07:36:16:101
-1.0;3.0;9.0;0.0;2.0;9.0;0.0;0.0;0.0;0.0;0.0;0.0;11.0;17.0;-12.0;-46.0;271.0;-15.0;2.0;2.0;17.0;42.49;-83.42;776.0;863.0489251963489;0.0;25.81;168.0;12 / 14;255007;2018-07-25 07:36:16:601
-1.0;3.0;10.0;0.0;2.0;10.0;-1.0;0.0;0.0;0.0;0.0;0.0;11.0;17.0;-11.0;-46.0;272.0;-14.0;2.0;2.0;17.0;42.49;-83.42;776.0;863.0489251963489;0.0;25.81;168.0;12 / 14;255507;2018-07-25 07:36:17:101
-1.0;3.0;9.0;0.0;2.0;10.0;-1.0;1.0;-1.0;0.0;0.0;0.0;11.0;15.0;-9.0;-47.0;267.0;-10.0;0.0;2.0;18.0;42.49;-83.42;776.0;863.0489251963489;0.0;25.81;168.0;12 / 14;256007;2018-07-25 07:36:17:601
0.0;1.0;7.0;1.0;3.0;9.0;-1.0;-1.0;-2.0;1.0;0.0;1.0;11.0;12.0;-18.0;-46.0;251.0;-15.0;-4.0;2.0;18.0;42.49;-83.42;776.0;863.0489251963489;0.0;25.81;168.0;12 / 14;256507;2018-07-25 07:36:18:101
1.0;4.0;9.0;1.0;4.0;9.0;1.0;0.0;-1.0;0.0;1.0;1.0;11.0;7.0;-31.0;-43.0;222.0;-22.0;-6.0;2.0;19.0;42.49;-83.42;776.0;863.0489251963489;0.0;25.81;168.0;12 / 14;257007;2018-07-25 07:36:18:601
-1.0;2.0;10.0;0.0;3.0;9.0;-1.0;-1.0;1.0;0.0;0.0;1.0;13.0;7.0;-32.0;-43.0;202.0;-19.0;0.0;2.0;20.0;42.49;-83.42;776.0;863.0489251963489;0.0;25.81;168.0;12 / 14;257507;2018-07-25 07:36:19:101
-2.0;4.0;10.0;-2.0;2.0;10.0;0.0;2.0;0.0;0.0;-1.0;1.0;13.0;8.0;-27.0;-45.0;180.0;-11.0;10.0;2.0;20.0;42.49;-83.42;776.0;863.0489251963489;0.0;25.81;168.0;12 / 14;258007;2018-07-25 07:36:19:601
-1.0;2.0;10.0;-1.0;3.0;9.0;-1.0;-2.0;1.0;1.0;1.0;1.0;54.0;-2.0;-35.0;-41.0;167.0;-20.0;4.0;2.0;20.0;42.49;-83.42;776.0;863.0489251963489;0.0;25.81;168.0;12 / 14;258508;2018-07-25 07:36:20:102
-5.0;3.0;9.0;0.0;4.0;9.0;-4.0;0.0;0.0;-1.0;2.0;2.0;111.0;-16.0;-26.0;-45.0;113.0;-23.0;2.0;2.0;19.0;42.49;-83.42;776.0;863.0489251963489;1.0;19.35;89.0;12 / 14;259007;2018-07-25 07:36:20:601
-1.0;2.0;5.0;-1.0;2.0;9.0;0.0;0.0;-4.0;-1.0;1.0;2.0;28.0;-9.0;-2.0;-52.0;53.0;-15.0;5.0;2.0;22.0;42.49;-83.42;776.0;863.0489251963489;1.0;19.35;89.0;12 / 14;259508;2018-07-25 07:36:21:102
-6.0;1.0;11.0;-2.0;1.0;9.0;-4.0;-1.0;1.0;1.0;1.0;-1.0;29.0;3.0;5.0;-51.0;46.0;-5.0;14.0;2.0;18.0;42.49;-83.42;776.0;863.0489251963489;1.0;19.35;91.0;12 / 14;260008;2018-07-25 07:36:21:602
2.0;4.0;11.0;-1.0;2.0;9.0;3.0;1.0;2.0;-1.0;-1.0;0.0;29.0;-8.0;-3.0;-51.0;52.0;-17.0;7.0;2.0;21.0;42.49;-83.42;776.0;863.0489251963489;1.0;19.35;91.0;12 / 14;260508;2018-07-25 07:36:22:102
0.0;1.0;15.0;2.0;2.0;9.0;-1.0;-1.0;7.0;1.0;1.0;-1.0;23.0;-25.0;-8.0;-45.0;80.0;-13.0;-10.0;2.0;22.0;42.49;-83.42;776.0;863.0489251963489;1.0;19.35;92.0;12 / 14;261007;2018-07-25 07:36:22:601
1.0;3.0;14.0;1.0;4.0;9.0;0.0;-1.0;5.0;0.0;0.0;0.0;17.0;-25.0;-14.0;-45.0;69.0;-27.0;-6.0;2.0;25.0;42.49;-83.42;776.0;863.0489251963489;1.0;19.35;92.0;12 / 14;261508;2018-07-25 07:36:23:102
0.0;5.0;8.0;1.0;5.0;9.0;-1.0;-1.0;-1.0;0.0;0.0;-1.0;10.0;-25.0;-16.0;-44.0;64.0;-29.0;-7.0;2.0;33.0;42.49;-83.42;776.0;863.0489251963489;2.0;19.35;91.0;13 / 14;262008;2018-07-25 07:36:23:602
1.0;4.0;8.0;1.0;6.0;8.0;1.0;-2.0;0.0;0.0;0.0;-1.0;10.0;-30.0;-18.0;-34.0;73.0;-37.0;-7.0;2.0;28.0;42.49;-83.42;776.0;863.0489251963489;2.0;19.35;91.0;13 / 14;262508;2018-07-25 07:36:24:102
2.0;5.0;8.0;0.0;6.0;8.0;3.0;-2.0;0.0;0.0;0.0;-2.0;205.0;-22.0;-35.0;-20.0;126.0;-37.0;-2.0;2.0;23.0;42.49;-83.42;776.0;863.0489251963489;2.0;19.35;91.0;13 / 14;263008;2018-07-25 07:36:24:602
0.0;6.0;7.0;-1.0;6.0;7.0;1.0;0.0;0.0;0.0;-1.0;-1.0;109.0;-5.0;-46.0;-16.0;162.0;-41.0;8.0;2.0;26.0;42.49;-83.42;776.0;863.0489251963489;2.0;19.35;91.0;13 / 14;263508;2018-07-25 07:36:25:102
-1.0;4.0;7.0;0.0;5.0;8.0;-1.0;-1.0;-1.0;0.0;0.0;-1.0;81.0;8.0;-42.0;-29.0;198.0;-30.0;2.0;2.0;33.0;42.49;-83.42;776.0;863.0489251963489;2.0;19.35;86.0;13 / 14;264008;2018-07-25 07:36:25:602
0.0;2.0;12.0;0.0;3.0;9.0;0.0;-1.0;3.0;0.0;0.0;-1.0;244.0;14.0;-30.0;-40.0;214.0;-18.0;2.0;2.0;30.0;42.49;-83.42;776.0;863.0489251963489;2.0;19.35;86.0;13 / 14;264507;2018-07-25 07:36:26:101
-2.0;2.0;13.0;0.0;4.0;9.0;-2.0;-1.0;1.0;-2.0;1.0;1.0;244.0;12.0;-34.0;-37.0;222.0;-28.0;-2.0;2.0;21.0;42.49;-83.42;776.0;863.0489251963489;2.0;19.35;78.0;13 / 14;265008;2018-07-25 07:36:26:602
6.0;1.0;11.0;1.0;1.0;10.0;5.0;0.0;1.0;-1.0;0.0;-1.0;216.0;3.0;-22.0;-46.0;204.0;-7.0;-5.0;2.0;19.0;42.49;-83.42;776.0;863.0489251963489;2.0;19.35;78.0;13 / 14;265508;2018-07-25 07:36:27:102
-2.0;5.0;9.0;-1.0;4.0;9.0;-1.0;0.0;0.0;0.0;0.0;0.0;47.0;15.0;-33.0;-37.0;222.0;-25.0;6.0;2.0;20.0;42.49;-83.42;776.0;863.0489251963489;3.0;19.35;73.0;13 / 15;266007;2018-07-25 07:36:27:601
-1.0;4.0;10.0;-1.0;4.0;9.0;-1.0;0.0;0.0;0.0;0.0;0.0;27.0;13.0;-31.0;-40.0;217.0;-22.0;3.0;2.0;19.0;42.49;-83.42;776.0;863.0489251963489;3.0;19.35;73.0;13 / 15;266508;2018-07-25 07:36:28:102
-1.0;4.0;8.0;-1.0;5.0;9.0;0.0;-1.0;-1.0;0.0;0.0;0.0;21.0;15.0;-35.0;-38.0;220.0;-28.0;8.0;2.0;18.0;42.49;-83.42;776.0;863.0489251963489;3.0;19.35;70.0;13 / 14;267007;2018-07-25 07:36:28:601
-5.0;1.0;14.0;0.0;3.0;9.0;-4.0;-2.0;5.0;0.0;0.0;1.0;21.0;2.0;-33.0;-43.0;185.0;-19.0;2.0;2.0;18.0;42.49;-83.42;776.0;863.0489251963489;3.0;19.35;70.0;13 / 14;267507;2018-07-25 07:36:29:101
-3.0;4.0;14.0;-3.0;3.0;9.0;2.0;1.0;2.0;0.0;1.0;0.0;9.0;7.0;-33.0;-45.0;154.0;-18.0;19.0;2.0;19.0;42.49;-83.42;776.0;863.0489251963489;3.0;19.35;70.0;13 / 14;268008;2018-07-25 07:36:29:602
-1.0;6.0;3.0;1.0;8.0;6.0;-2.0;-1.0;-3.0;0.0;0.0;0.0;61.0;0.0;-53.0;-19.0;188.0;-53.0;-4.0;2.0;19.0;42.49;-83.42;776.0;863.0489251963489;3.0;19.35;70.0;13 / 14;268508;2018-07-25 07:36:30:102
0.0;6.0;7.0;-2.0;7.0;7.0;2.0;-1.0;0.0;0.0;-1.0;0.0;8.0;7.0;-52.0;-21.0;185.0;-45.0;14.0;2.0;20.0;42.49;-83.42;776.0;863.0489251963489;3.0;19.35;70.0;13 / 14;269008;2018-07-25 07:36:30:602
3.0;1.0;12.0;1.0;4.0;9.0;3.0;-3.0;3.0;0.0;-1.0;-2.0;8.0;14.0;-33.0;-41.0;232.0;-27.0;-4.0;2.0;17.0;42.49;-83.42;776.0;863.0489251963489;3.0;19.35;70.0;13 / 14;269508;2018-07-25 07:36:31:102
2.0;2.0;10.0;2.0;2.0;9.0;-1.0;0.0;1.0;-1.0;-1.0;-1.0;11.0;8.0;-11.0;-54.0;269.0;-14.0;-15.0;2.0;19.0;42.49;-83.42;775.0;862.9688264429464;2.0;19.35;58.0;13 / 15;270008;2018-07-25 07:36:31:602
0.0;7.0;15.0;1.0;3.0;9.0;-2.0;4.0;6.0;-2.0;1.0;0.0;15.0;20.0;-21.0;-56.0;258.0;-17.0;-12.0;2.0;28.0;42.49;-83.42;775.0;862.9688264429464;2.0;19.35;58.0;13 / 15;270508;2018-07-25 07:36:32:102
0.0;3.0;11.0;0.0;2.0;10.0;0.0;0.0;2.0;0.0;0.0;0.0;55.0;27.0;-18.0;-57.0;259.0;-12.0;-1.0;2.0;27.0;42.49;-83.42;775.0;862.9688264429464;3.0;19.35;74.0;13 / 15;271008;2018-07-25 07:36:32:602
1.0;1.0;10.0;0.0;2.0;10.0;1.0;-1.0;0.0;0.0;0.0;0.0;35.0;28.0;-22.0;-55.0;247.0;-10.0;-1.0;2.0;21.0;42.49;-83.42;775.0;862.9688264429464;3.0;19.35;74.0;13 / 15;271507;2018-07-25 07:36:33:101
-1.0;5.0;10.0;0.0;3.0;9.0;-2.0;1.0;1.0;0.0;0.0;0.0;35.0;33.0;-26.0;-48.0;256.0;-20.0;3.0;2.0;23.0;42.49;-83.42;775.0;862.9688264429464;3.0;19.35;71.0;13 / 15;272007;2018-07-25 07:36:33:601
1.0;3.0;10.0;1.0;2.0;9.0;0.0;0.0;0.0;0.0;0.0;0.0;37.0;24.0;-26.0;-54.0;246.0;-14.0;-6.0;2.0;26.0;42.49;-83.42;775.0;862.9688264429464;3.0;19.35;71.0;13 / 15;272507;2018-07-25 07:36:34:101
0.0;3.0;9.0;1.0;3.0;9.0;0.0;0.0;0.0;0.0;0.0;0.0;38.0;26.0;-28.0;-52.0;246.0;-16.0;-4.0;2.0;20.0;42.49;-83.42;774.0;862.9688264429464;3.0;19.35;66.0;13 / 15;273007;2018-07-25 07:36:34:601
0.0;3.0;10.0;0.0;2.0;9.0;0.0;0.0;0.0;0.0;0.0;0.0;40.0;28.0;-27.0;-51.0;245.0;-15.0;-3.0;2.0;18.0;42.49;-83.42;774.0;862.9688264429464;3.0;19.35;66.0;13 / 15;273508;2018-07-25 07:36:35:102
0.0;3.0;10.0;0.0;3.0;9.0;0.0;0.0;0.0;0.0;0.0;0.0;40.0;27.0;-27.0;-51.0;246.0;-15.0;-3.0;2.0;18.0;42.49;-83.42;774.0;862.9688264429464;2.0;19.35;67.0;13 / 13;274007;2018-07-25 07:36:35:601
0.0;3.0;10.0;0.0;3.0;9.0;0.0;0.0;0.0;0.0;0.0;0.0;40.0;28.0;-27.0;-51.0;247.0;-15.0;-2.0;2.0;16.0;42.49;-83.42;774.0;862.9688264429464;2.0;19.35;67.0;13 / 13;274508;2018-07-25 07:36:36:102
0.0;4.0;9.0;0.0;4.0;9.0;0.0;0.0;0.0;0.0;0.0;0.0;39.0;31.0;-33.0;-45.0;247.0;-23.0;2.0;2.0;16.0;42.49;-83.42;774.0;862.9688264429464;2.0;19.35;68.0;12 / 13;275008;2018-07-25 07:36:36:602
-1.0;5.0;8.0;0.0;5.0;8.0;0.0;0.0;0.0;0.0;0.0;0.0;31.0;31.0;-38.0;-42.0;250.0;-31.0;2.0;2.0;17.0;42.49;-83.42;774.0;862.9688264429464;2.0;19.35;68.0;12 / 13;275507;2018-07-25 07:36:37:101
-1.0;5.0;8.0;0.0;5.0;9.0;0.0;0.0;0.0;0.0;0.0;0.0;22.0;31.0;-37.0;-42.0;249.0;-30.0;2.0;2.0;17.0;42.49;-83.42;774.0;862.9688264429464;2.0;19.35;67.0;12 / 13;276007;2018-07-25 07:36:37:601
0.0;2.0;10.0;1.0;2.0;10.0;0.0;0.0;0.0;0.0;0.0;0.0;22.0;27.0;-23.0;-53.0;248.0;-12.0;-3.0;2.0;17.0;42.49;-83.42;774.0;862.9688264429464;2.0;19.35;67.0;12 / 13;276507;2018-07-25 07:36:38:101
0.0;2.0;10.0;0.0;1.0;10.0;0.0;0.0;0.0;0.0;0.0;0.0;16.0;29.0;-21.0;-54.0;249.0;-9.0;-2.0;2.0;16.0;42.49;-83.42;774.0;862.9688264429464;1.0;19.35;66.0;12 / 13;277008;2018-07-25 07:36:38:602
0.0;2.0;10.0;0.0;1.0;10.0;0.0;0.0;0.0;0.0;0.0;0.0;24.0;29.0;-21.0;-53.0;246.0;-8.0;-1.0;2.0;17.0;42.49;-83.42;774.0;862.9688264429464;1.0;19.35;66.0;12 / 13;277508;2018-07-25 07:36:39:102
0.0;2.0;10.0;0.0;1.0;10.0;0.0;0.0;0.0;0.0;0.0;0.0;34.0;29.0;-21.0;-53.0;247.0;-9.0;-1.0;2.0;16.0;42.49;-83.42;774.0;862.9688264429464;1.0;19.35;61.0;12 / 13;278007;2018-07-25 07:36:39:601
0.0;2.0;10.0;0.0;2.0;10.0;0.0;0.0;0.0;0.0;0.0;0.0;42.0;29.0;-21.0;-52.0;247.0;-9.0;-1.0;2.0;17.0;42.49;-83.42;774.0;862.9688264429464;1.0;19.35;61.0;12 / 13;278508;2018-07-25 07:36:40:102
1.0;2.0;10.0;1.0;1.0;10.0;0.0;0.0;0.0;0.0;-1.0;0.0;42.0;26.0;-20.0;-55.0;248.0;-8.0;-4.0;2.0;16.0;42.49;-83.42;774.0;862.9688264429464;1.0;19.35;61.0;12 / 13;279008;2018-07-25 07:36:40:602
1.0;1.0;10.0;1.0;1.0;10.0;0.0;0.0;0.0;0.0;0.0;0.0;43.0;22.0;-19.0;-57.0;249.0;-8.0;-9.0;2.0;16.0;42.49;-83.42;774.0;862.9688264429464;1.0;19.35;61.0;12 / 13;279508;2018-07-25 07:36:41:102
0.0;2.0;10.0;1.0;2.0;10.0;0.0;0.0;0.0;1.0;1.0;0.0;56.0;27.0;-23.0;-53.0;248.0;-11.0;-4.0;2.0;17.0;42.49;-83.42;774.0;862.9688264429464;1.0;19.35;61.0;12 / 13;280007;2018-07-25 07:36:41:601
0.0;2.0;10.0;0.0;2.0;10.0;0.0;0.0;0.0;0.0;0.0;0.0;49.0;30.0;-22.0;-52.0;250.0;-12.0;-1.0;2.0;18.0;42.49;-83.42;774.0;862.9688264429464;1.0;19.35;61.0;12 / 13;280508;2018-07-25 07:36:42:102
0.0;2.0;10.0;0.0;2.0;10.0;0.0;0.0;0.0;0.0;0.0;0.0;49.0;27.0;-21.0;-53.0;249.0;-10.0;-3.0;2.0;18.0;42.49;-83.42;774.0;862.9688264429464;1.0;19.35;61.0;12 / 13;281008;2018-07-25 07:36:42:602
1.0;2.0;10.0;1.0;2.0;10.0;0.0;0.0;0.0;0.0;0.0;0.0;45.0;26.0;-21.0;-54.0;249.0;-10.0;-4.0;2.0;16.0;42.49;-83.42;774.0;862.9688264429464;1.0;19.35;61.0;12 / 13;281508;2018-07-25 07:36:43:102
1.0;2.0;10.0;1.0;2.0;10.0;0.0;0.0;0.0;0.0;0.0;0.0;45.0;23.0;-22.0;-55.0;248.0;-11.0;-7.0;2.0;16.0;42.49;-83.42;774.0;862.9688264429464;1.0;19.35;61.0;12 / 12;282007;2018-07-25 07:36:43:601
3.0;2.0;9.0;3.0;2.0;9.0;0.0;0.0;0.0;0.0;0.0;0.0;45.0;14.0;-22.0;-58.0;250.0;-12.0;-16.0;2.0;17.0;42.49;-83.42;774.0;862.9688264429464;1.0;19.35;61.0;12 / 12;282507;2018-07-25 07:36:44:101
4.0;2.0;9.0;3.0;2.0;9.0;0.0;0.0;0.0;0.0;0.0;0.0;64.0;10.0;-23.0;-59.0;248.0;-12.0;-20.0;2.0;19.0;42.49;-83.42;774.0;862.9688264429464;1.0;19.35;61.0;10 / 12;283008;2018-07-25 07:36:44:602
-2.0;2.0;9.0;-1.0;2.0;9.0;-1.0;0.0;0.0;0.0;1.0;0.0;64.0;38.0;-19.0;-47.0;257.0;-12.0;7.0;2.0;16.0;42.49;-83.42;774.0;862.9688264429464;1.0;19.35;61.0;10 / 12;283508;2018-07-25 07:36:45:102
-3.0;2.0;9.0;-3.0;2.0;9.0;0.0;0.0;0.0;0.0;0.0;0.0;71.0;44.0;-20.0;-42.0;256.0;-13.0;16.0;2.0;17.0;42.49;-83.42;774.0;862.9688264429464;1.0;19.35;61.0;10 / 12;284007;2018-07-25 07:36:45:601
-2.0;2.0;10.0;-1.0;2.0;10.0;0.0;0.0;0.0;-1.0;-1.0;0.0;16.0;39.0;-17.0;-48.0;257.0;-11.0;10.0;2.0;16.0;42.49;-83.42;774.0;862.9688264429464;1.0;19.35;61.0;10 / 12;284508;2018-07-25 07:36:46:102
0.0;1.0;10.0;0.0;1.0;10.0;0.0;0.0;0.0;0.0;0.0;0.0;16.0;29.0;-15.0;-55.0;254.0;-6.0;-1.0;2.0;16.0;42.49;-83.42;774.0;862.9688264429464;1.0;19.35;61.0;11 / 13;285008;2018-07-25 07:36:46:602
1.0;1.0;10.0;1.0;1.0;10.0;0.0;0.0;0.0;0.0;0.0;0.0;26.0;25.0;-14.0;-56.0;254.0;-5.0;-5.0;2.0;15.0;42.49;-83.42;774.0;862.9688264429464;1.0;19.35;61.0;11 / 13;285508;2018-07-25 07:36:47:102
1.0;1.0;10.0;1.0;1.0;10.0;0.0;0.0;0.0;0.0;0.0;0.0;26.0;25.0;-13.0;-57.0;255.0;-5.0;-5.0;2.0;17.0;42.49;-83.42;774.0;862.9688264429464;1.0;19.35;61.0;10 / 13;286008;2018-07-25 07:36:47:602
1.0;1.0;10.0;1.0;1.0;10.0;0.0;0.0;0.0;0.0;0.0;0.0;51.0;25.0;-14.0;-57.0;253.0;-5.0;-5.0;2.0;16.0;42.49;-83.42;774.0;862.9688264429464;1.0;19.35;61.0;10 / 13;286508;2018-07-25 07:36:48:102
0.0;1.0;10.0;1.0;1.0;10.0;0.0;0.0;1.0;0.0;0.0;0.0;53.0;26.0;-17.0;-55.0;252.0;-8.0;-4.0;2.0;16.0;42.49;-83.42;774.0;862.9688264429464;1.0;19.35;61.0;10 / 13;287008;2018-07-25 07:36:48:602
0.0;3.0;9.0;0.0;3.0;9.0;0.0;0.0;0.0;0.0;0.0;0.0;49.0;30.0;-28.0;-49.0;252.0;-20.0;1.0;2.0;17.0;42.49;-83.42;774.0;862.9688264429464;1.0;19.35;61.0;10 / 13;287508;2018-07-25 07:36:49:102
0.0;4.0;9.0;0.0;4.0;9.0;0.0;0.0;0.0;0.0;0.0;0.0;49.0;32.0;-30.0;-47.0;255.0;-23.0;3.0;2.0;16.0;42.49;-83.42;774.0;862.9688264429464;1.0;19.35;61.0;11 / 13;288008;2018-07-25 07:36:49:602
-1.0;4.0;9.0;0.0;4.0;9.0;0.0;0.0;0.0;0.0;0.0;0.0;39.0;32.0;-29.0;-47.0;255.0;-23.0;3.0;2.0;16.0;42.49;-83.42;774.0;862.9688264429464;1.0;19.35;61.0;11 / 13;288508;2018-07-25 07:36:50:102
0.0;4.0;9.0;0.0;4.0;9.0;0.0;0.0;0.0;0.0;0.0;0.0;35.0;31.0;-29.0;-48.0;255.0;-22.0;3.0;2.0;15.0;42.49;-83.42;774.0;862.9688264429464;1.0;19.35;61.0;11 / 13;289008;2018-07-25 07:36:50:602
0.0;4.0;9.0;0.0;4.0;9.0;0.0;0.0;0.0;0.0;0.0;0.0;29.0;32.0;-29.0;-47.0;255.0;-23.0;3.0;2.0;17.0;42.49;-83.42;774.0;862.9688264429464;1.0;19.35;61.0;11 / 13;289508;2018-07-25 07:36:51:102
-1.0;4.0;9.0;0.0;4.0;9.0;0.0;0.0;0.0;0.0;0.0;0.0;24.0;32.0;-29.0;-47.0;255.0;-23.0;3.0;2.0;16.0;42.49;-83.42;774.0;862.9688264429464;1.0;19.35;61.0;11 / 13;290008;2018-07-25 07:36:51:602
-1.0;3.0;10.0;-1.0;3.0;9.0;0.0;0.0;1.0;0.0;0.0;0.0;24.0;36.0;-22.0;-48.0;255.0;-15.0;5.0;2.0;20.0;42.49;-83.42;774.0;862.9688264429464;1.0;19.35;61.0;11 / 13;290507;2018-07-25 07:36:52:101
-2.0;2.0;11.0;-1.0;3.0;9.0;0.0;-1.0;1.0;1.0;1.0;0.0;20.0;38.0;-24.0;-46.0;254.0;-16.0;9.0;2.0;16.0;42.49;-83.42;774.0;862.9688264429464;1.0;19.35;61.0;12 / 13;291008;2018-07-25 07:36:52:602
-1.0;2.0;8.0;-2.0;1.0;10.0;0.0;1.0;-1.0;3.0;5.0;1.0;21.0;39.0;-19.0;-45.0;245.0;-3.0;4.0;2.0;23.0;42.49;-83.42;774.0;862.9688264429464;1.0;19.35;61.0;12 / 13;291507;2018-07-25 07:36:53:101
2.0;3.0;11.0;2.0;2.0;9.0;0.0;1.0;2.0;0.0;1.0;-1.0;21.0;17.0;-19.0;-58.0;251.0;-10.0;-14.0;2.0;21.0;42.49;-83.42;774.0;862.9688264429464;1.0;19.35;61.0;12 / 13;292007;2018-07-25 07:36:53:601
0.0;3.0;9.0;0.0;3.0;9.0;0.0;0.0;0.0;0.0;0.0;0.0;53.0;28.0;-29.0;-48.0;249.0;-20.0;-2.0;2.0;16.0;42.49;-83.42;774.0;862.9688264429464;1.0;19.35;61.0;12 / 13;292508;2018-07-25 07:36:54:102
-1.0;6.0;4.0;0.0;6.0;8.0;-1.0;0.0;-3.0;1.0;0.0;0.0;53.0;28.0;-45.0;-38.0;250.0;-39.0;-1.0;2.0;16.0;42.49;-83.42;772.0;862.7203205370568;1.0;19.35;36.0;12 / 13;293011;2018-07-25 07:36:54:605
-1.0;7.0;8.0;-1.0;7.0;7.0;0.0;0.0;1.0;0.0;0.0;0.0;17.0;32.0;-44.0;-35.0;256.0;-42.0;5.0;2.0;18.0;42.49;-83.42;772.0;862.7203205370568;1.0;19.35;36.0;12 / 13;293508;2018-07-25 07:36:55:102
-1.0;7.0;7.0;-1.0;7.0;7.0;0.0;0.0;0.0;0.0;0.0;0.0;13.0;33.0;-46.0;-33.0;255.0;-45.0;7.0;2.0;18.0;42.49;-83.42;772.0;862.7203205370568;1.0;19.35;32.0;13 / 13;294007;2018-07-25 07:36:55:601
-1.0;7.0;7.0;-1.0;7.0;7.0;0.0;0.0;0.0;0.0;0.0;0.0;12.0;33.0;-45.0;-34.0;258.0;-44.0;7.0;2.0;15.0;42.49;-83.42;772.0;862.7203205370568;1.0;19.35;32.0;13 / 13;294508;2018-07-25 07:36:56:102
-1.0;7.0;7.0;-1.0;7.0;7.0;0.0;0.0;0.0;0.0;0.0;0.0;12.0;32.0;-45.0;-33.0;256.0;-44.0;6.0;2.0;16.0;42.49;-83.42;772.0;862.7203205370568;1.0;19.35;29.0;13 / 13;295007;2018-07-25 07:36:56:601
-1.0;7.0;7.0;-1.0;7.0;7.0;0.0;0.0;0.0;0.0;0.0;0.0;8.0;32.0;-45.0;-33.0;256.0;-44.0;6.0;2.0;17.0;42.49;-83.42;772.0;862.7203205370568;1.0;19.35;29.0;13 / 13;295507;2018-07-25 07:36:57:101
-1.0;7.0;7.0;-1.0;7.0;7.0;0.0;0.0;0.0;0.0;0.0;0.0;8.0;32.0;-45.0;-34.0;257.0;-44.0;6.0;2.0;15.0;42.49;-83.42;772.0;862.7203205370568;1.0;19.35;27.0;13 / 13;296007;2018-07-25 07:36:57:601
-1.0;7.0;7.0;-1.0;7.0;7.0;0.0;0.0;0.0;0.0;0.0;0.0;8.0;32.0;-45.0;-34.0;257.0;-44.0;6.0;2.0;16.0;42.49;-83.42;772.0;862.7203205370568;1.0;19.35;27.0;13 / 13;296507;2018-07-25 07:36:58:101
1.0;-3.0;9.0;0.0;-2.0;10.0;1.0;0.0;-1.0;1.0;0.0;0.0;8.0;30.0;0.0;-55.0;249.0;13.0;-2.0;2.0;21.0;42.49;-83.42;772.0;862.7203205370568;1.0;19.35;25.0;13 / 13;297008;2018-07-25 07:36:58:602
0.0;-2.0;10.0;0.0;-2.0;10.0;0.0;0.0;0.0;0.0;0.0;0.0;8.0;29.0;0.0;-55.0;250.0;12.0;-1.0;2.0;15.0;42.49;-83.42;772.0;862.7203205370568;1.0;19.35;25.0;13 / 13;297508;2018-07-25 07:36:59:102
0.0;-2.0;11.0;0.0;-2.0;10.0;0.0;0.0;1.0;0.0;0.0;0.0;22.0;30.0;-2.0;-55.0;248.0;11.0;-1.0;2.0;16.0;42.49;-83.42;772.0;862.7203205370568;1.0;19.35;26.0;13 / 13;298008;2018-07-25 07:36:59:602
-1.0;6.0;7.0;0.0;5.0;8.0;0.0;0.0;-1.0;0.0;0.0;0.0;50.0;28.0;-38.0;-43.0;251.0;-32.0;0.0;2.0;18.0;42.49;-83.42;772.0;862.7203205370568;1.0;19.35;26.0;13 / 13;298508;2018-07-25 07:37:00:102
0.0;5.0;8.0;0.0;5.0;8.0;0.0;0.0;0.0;0.0;0.0;0.0;50.0;29.0;-37.0;-43.0;252.0;-31.0;1.0;2.0;16.0;42.49;-83.42;772.0;862.7203205370568;1.0;19.35;20.0;13 / 13;299008;2018-07-25 07:37:00:602
0.0;5.0;8.0;0.0;5.0;8.0;0.0;0.0;0.0;0.0;0.0;0.0;12.0;29.0;-37.0;-43.0;252.0;-31.0;0.0;2.0;18.0;42.49;-83.42;772.0;862.7203205370568;1.0;19.35;20.0;13 / 13;299508;2018-07-25 07:37:01:102
0.0;0.0;10.0;0.0;0.0;10.0;0.0;0.0;0.0;0.0;0.0;0.0;12.0;29.0;-11.0;-55.0;249.0;1.0;-1.0;2.0;17.0;42.49;-83.42;772.0;862.7203205370568;1.0;19.35;18.0;12 / 14;300007;2018-07-25 07:37:01:601
0.0;3.0;9.0;0.0;3.0;9.0;0.0;0.0;0.0;0.0;0.0;0.0;22.0;29.0;-28.0;-48.0;251.0;-20.0;0.0;2.0;17.0;42.49;-83.42;772.0;862.7203205370568;1.0;19.35;18.0;12 / 14;300507;2018-07-25 07:37:02:101
0.0;3.0;9.0;0.0;3.0;9.0;0.0;0.0;0.0;0.0;0.0;0.0;25.0;29.0;-27.0;-49.0;251.0;-19.0;0.0;2.0;17.0;42.49;-83.42;772.0;862.7203205370568;1.0;19.35;18.0;13 / 14;301007;2018-07-25 07:37:02:601
0.0;0.0;11.0;0.0;0.0;10.0;0.0;0.0;2.0;0.0;0.0;0.0;28.0;28.0;-14.0;-54.0;247.0;-1.0;-2.0;2.0;16.0;42.49;-83.42;772.0;862.7203205370568;1.0;19.35;18.0;13 / 14;301507;2018-07-25 07:37:03:101
0.0;4.0;9.0;0.0;4.0;9.0;0.0;0.0;0.0;0.0;0.0;0.0;28.0;28.0;-31.0;-47.0;252.0;-24.0;-1.0;2.0;16.0;42.49;-83.42;772.0;862.7203205370568;1.0;19.35;15.0;13 / 14;302007;2018-07-25 07:37:03:601
0.0;4.0;9.0;0.0;4.0;9.0;0.0;0.0;0.0;0.0;0.0;0.0;27.0;28.0;-32.0;-47.0;249.0;-23.0;-1.0;2.0;15.0;42.49;-83.42;772.0;862.7203205370568;1.0;19.35;15.0;13 / 14;302507;2018-07-25 07:37:04:101
0.0;3.0;10.0;0.0;3.0;9.0;0.0;0.0;0.0;-1.0;0.0;0.0;25.0;26.0;-25.0;-52.0;251.0;-16.0;-3.0;2.0;16.0;42.49;-83.42;772.0;862.7203205370568;1.0;19.35;13.0;12 / 14;303008;2018-07-25 07:37:04:602
-1.0;-2.0;8.0;1.0;2.0;10.0;-2.0;-4.0;-1.0;1.0;1.0;-6.0;31.0;25.0;-3.0;-58.0;282.0;-10.0;-6.0;2.0;17.0;42.49;-83.42;772.0;862.7203205370568;1.0;19.35;13.0;12 / 14;303508;2018-07-25 07:37:05:102
-2.0;1.0;6.0;-1.0;1.0;10.0;-1.0;1.0;-3.0;0.0;-1.0;-1.0;50.0;34.0;-15.0;-48.0;249.0;-4.0;5.0;2.0;30.0;42.49;-83.42;772.0;862.7203205370568;1.0;19.35;11.0;12 / 14;304008;2018-07-25 07:37:05:602
-2.0;-8.0;18.0;-1.0;-1.0;10.0;-2.0;-7.0;8.0;-2.0;1.0;0.0;50.0;34.0;-5.0;-51.0;256.0;2.0;4.0;2.0;16.0;42.49;-83.42;772.0;862.7203205370568;1.0;19.35;11.0;12 / 14;304508;2018-07-25 07:37:06:102
13.0;-33.0;36.0;-3.0;-1.0;9.0;16.0;-32.0;26.0;1.0;-1.0;1.0;42.0;36.0;-3.0;-40.0;248.0;7.0;18.0;2.0;24.0;42.49;-83.42;772.0;862.7203205370568;1.0;19.35;6.0;12 / 13;305008;2018-07-25 07:37:06:602
0.0;-1.0;12.0;0.0;-1.0;10.0;0.0;-1.0;2.0;0.0;0.0;1.0;44.0;25.0;-2.0;-58.0;258.0;4.0;-2.0;2.0;51.0;42.49;-83.42;772.0;862.7203205370568;1.0;19.35;6.0;12 / 13;305507;2018-07-25 07:37:07:101
0.0;0.0;10.0;0.0;0.0;10.0;0.0;0.0;0.0;0.0;0.0;0.0;44.0;26.0;-4.0;-56.0;261.0;1.0;-2.0;2.0;18.0;42.49;-83.42;772.0;862.7203205370568;1.0;19.35;3.0;12 / 14;306007;2018-07-25 07:37:07:601
1.0;0.0;9.0;1.0;0.0;10.0;0.0;0.0;0.0;0.0;0.0;0.0;46.0;25.0;-4.0;-57.0;261.0;1.0;-3.0;2.0;15.0;42.49;-83.42;772.0;862.7203205370568;1.0;19.35;3.0;12 / 14;306507;2018-07-25 07:37:08:101
3.0;-1.0;12.0;1.0;0.0;10.0;2.0;-1.0;2.0;0.0;0.0;-1.0;48.0;22.0;-2.0;-59.0;261.0;2.0;-5.0;2.0;16.0;42.49;-83.42;772.0;862.7203205370568;1.0;19.35;358.0;11 / 14;307008;2018-07-25 07:37:08:602
0.0;4.0;20.0;1.0;-1.0;10.0;-2.0;5.0;10.0;2.0;3.0;2.0;49.0;21.0;9.0;-60.0;275.0;6.0;-9.0;2.0;41.0;42.49;-83.42;772.0;862.7203205370568;1.0;19.35;358.0;11 / 14;307508;2018-07-25 07:37:09:102
0.0;1.0;9.0;0.0;1.0;10.0;0.0;-1.0;0.0;1.0;1.0;0.0;47.0;29.0;-11.0;-52.0;264.0;-7.0;2.0;2.0;61.0;42.49;-83.42;772.0;862.7203205370568;1.0;19.35;352.0;12 / 14;308007;2018-07-25 07:37:09:601
0.0;0.0;10.0;0.0;1.0;10.0;0.0;0.0;0.0;0.0;0.0;0.0;41.0;30.0;-8.0;-53.0;260.0;-3.0;2.0;2.0;17.0;42.49;-83.42;772.0;862.7203205370568;1.0;19.35;352.0;12 / 14;308507;2018-07-25 07:37:10:101
-1.0;1.0;10.0;-1.0;0.0;10.0;0.0;0.0;0.0;0.0;0.0;0.0;41.0;32.0;-8.0;-53.0;260.0;-3.0;3.0;2.0;17.0;42.49;-83.42;772.0;862.7203205370568;1.0;19.35;344.0;10 / 15;309007;2018-07-25 07:37:10:601
-2.0;0.0;12.0;0.0;0.0;10.0;-1.0;0.0;2.0;-1.0;-1.0;-1.0;37.0;27.0;-1.0;-57.0;267.0;-2.0;1.0;2.0;31.0;42.49;-83.42;772.0;862.7203205370568;1.0;19.35;344.0;10 / 15;309507;2018-07-25 07:37:11:101
-11.0;-29.0;1.0;-3.0;2.0;9.0;-8.0;-29.0;-8.0;9.0;5.0;-6.0;33.0;41.0;-16.0;-33.0;257.0;-12.0;17.0;2.0;47.0;42.49;-83.42;772.0;862.7203205370568;1.0;25.81;342.0;10 / 15;310007;2018-07-25 07:37:11:601
-24.0;29.0;-14.0;-3.0;4.0;8.0;-22.0;26.0;-26.0;-4.0;-2.0;2.0;32.0;39.0;-7.0;-46.0;313.0;-25.0;22.0;2.0;63.0;42.49;-83.42;772.0;862.7203205370568;1.0;25.81;342.0;10 / 15;310508;2018-07-25 07:37:12:102
1.0;1.0;10.0;0.0;0.0;10.0;1.0;0.0;0.0;0.0;0.0;0.0;30.0;29.0;0.0;-58.0;275.0;-3.0;1.0;2.0;56.0;42.49;-83.42;772.0;862.7203205370568;1.0;25.81;339.0;11 / 15;311007;2018-07-25 07:37:12:601
0.0;2.0;10.0;0.0;1.0;10.0;0.0;0.0;0.0;0.0;0.0;0.0;30.0;28.0;-3.0;-59.0;278.0;-7.0;0.0;2.0;30.0;42.49;-83.42;772.0;862.7203205370568;1.0;25.81;339.0;11 / 15;311508;2018-07-25 07:37:13:102
0.0;0.0;9.0;0.0;0.0;10.0;0.0;0.0;0.0;0.0;0.0;0.0;25.0;28.0;1.0;-60.0;274.0;-2.0;-1.0;2.0;24.0;42.49;-83.42;772.0;862.7203205370568;1.0;25.81;346.0;12 / 16;312007;2018-07-25 07:37:13:601
0.0;0.0;10.0;0.0;0.0;10.0;0.0;0.0;0.0;0.0;0.0;0.0;28.0;28.0;1.0;-61.0;270.0;1.0;-2.0;2.0;23.0;42.49;-83.42;772.0;862.7203205370568;1.0;25.81;346.0;12 / 16;312507;2018-07-25 07:37:14:101
0.0;0.0;10.0;0.0;0.0;10.0;0.0;0.0;0.0;0.0;0.0;0.0;28.0;28.0;0.0;-61.0;270.0;0.0;-1.0;2.0;27.0;42.49;-83.42;772.0;862.7203205370568;1.0;25.81;344.0;12 / 17;313007;2018-07-25 07:37:14:601
3.0;-2.0;10.0;2.0;-1.0;10.0;1.0;0.0;1.0;0.0;0.0;0.0;32.0;18.0;8.0;-65.0;270.0;6.0;-10.0;2.0;24.0;42.49;-83.42;772.0;862.7203205370568;1.0;25.81;344.0;12 / 17;313507;2018-07-25 07:37:15:101
-11.0;5.0;-2.0;-7.0;4.0;6.0;-7.0;2.0;-9.0;6.0;22.0;4.0;38.0;57.0;-22.0;-9.0;257.0;-18.0;24.0;2.0;55.0;42.49;-83.42;772.0;862.7203205370568;1.0;25.81;344.0;12 / 17;314007;2018-07-25 07:37:15:601
12.0;-4.0;-8.0;-1.0;0.0;10.0;13.0;-4.0;-18.0;12.0;18.0;1.0;29.0;39.0;-14.0;-45.0;252.0;14.0;-18.0;2.0;52.0;42.49;-83.42;772.0;862.7203205370568;1.0;25.81;344.0;12 / 17;314507;2018-07-25 07:37:16:101
13.0;-5.0;-2.0;3.0;-3.0;9.0;10.0;-4.0;-8.0;12.0;20.0;3.0;30.0;27.0;-2.0;-56.0;255.0;30.0;-35.0;2.0;46.0;42.49;-83.42;772.0;861.9825121369851;1.0;25.81;337.0;12 / 17;315007;2018-07-25 07:37:16:601
-5.0;-9.0;20.0;-5.0;0.0;8.0;1.0;-10.0;12.0;13.0;21.0;11.0;24.0;47.0;-23.0;-34.0;249.0;28.0;-23.0;2.0;50.0;42.49;-83.42;772.0;861.9825121369851;1.0;25.81;337.0;12 / 17;315507;2018-07-25 07:37:17:101
-2.0;1.0;9.0;-4.0;0.0;9.0;2.0;1.0;0.0;2.0;2.0;0.0;24.0;41.0;-12.0;-46.0;236.0;5.0;18.0;2.0;57.0;42.49;-83.42;773.0;861.9825121369851;2.0;25.81;330.0;12 / 17;316007;2018-07-25 07:37:17:601
-3.0;2.0;10.0;-3.0;2.0;9.0;0.0;0.0;0.0;0.0;0.0;0.0;37.0;46.0;-14.0;-43.0;262.0;-10.0;19.0;2.0;21.0;42.49;-83.42;773.0;861.9825121369851;2.0;25.81;330.0;12 / 17;316508;2018-07-25 07:37:18:102
-1.0;1.0;10.0;-1.0;1.0;10.0;0.0;0.0;0.0;0.0;0.0;0.0;26.0;34.0;-10.0;-53.0;255.0;-3.0;4.0;2.0;17.0;42.49;-83.42;773.0;861.9825121369851;2.0;25.81;325.0;12 / 17;317007;2018-07-25 07:37:18:601
0.0;0.0;10.0;0.0;0.0;10.0;0.0;0.0;0.0;0.0;0.0;0.0;26.0;30.0;-9.0;-57.0;256.0;-1.0;0.0;2.0;17.0;42.49;-83.42;773.0;861.9825121369851;2.0;25.81;325.0;12 / 17;317507;2018-07-25 07:37:19:101
0.0;0.0;10.0;0.0;0.0;10.0;0.0;0.0;0.0;-1.0;-1.0;0.0;30.0;31.0;-5.0;-55.0;261.0;0.0;3.0;2.0;16.0;42.49;-83.42;773.0;861.9825121369851;2.0;25.81;321.0;12 / 17;318008;2018-07-25 07:37:19:602
0.0;0.0;10.0;0.0;0.0;10.0;0.0;0.0;0.0;0.0;0.0;0.0;30.0;30.0;-6.0;-56.0;255.0;2.0;0.0;2.0;15.0;42.49;-83.42;773.0;861.9825121369851;2.0;25.81;321.0;12 / 17;318507;2018-07-25 07:37:20:101
0.0;-1.0;10.0;0.0;0.0;10.0;0.0;0.0;0.0;0.0;0.0;0.0;42.0;30.0;-5.0;-56.0;256.0;3.0;-1.0;2.0;16.0;42.49;-83.42;773.0;861.9825121369851;2.0;25.81;321.0;12 / 17;319007;2018-07-25 07:37:20:601
0.0;0.0;10.0;0.0;0.0;10.0;0.0;0.0;0.0;0.0;0.0;0.0;46.0;30.0;-5.0;-56.0;257.0;2.0;-1.0;2.0;17.0;42.49;-83.42;773.0;861.9825121369851;2.0;25.81;321.0;12 / 17;319507;2018-07-25 07:37:21:101
